UTC,Pack_count,IMUTemp,q0,q1,q2,q3,Roll,Pitch,Yaw,RollRate,PitchRate,YawRate,AccX,AccY,AccZ,RealAccX,RealAccY,RealAccZ,PosX,PosY,PosZ,Long,Lat,Height,VelX,VelY,VelZ,RSSI,SNR,
13:23:19:78,57017,31.7344,0.9999   0.0048217   0.0052712   -0.012564,0.54492     0.61093     -1.4369,-2.9564e-05   0.0053253 -0.00079679,0.0035515   0.0016613   -0.011482,-0.10083    0.094482      9.7656,0  0  0,0  0  0,0  0  0,213,-37,
13:23:20:12,57018,31.7344,0.99989   0.0048623   0.0052692   -0.012737,0.54947     0.61084     -1.4567,0.0029774   0.0025692 -0.00067568,-0.001771   -0.008728   0.0066948,-0.10577    0.085205      9.7891,0  0  0,0  0  0,0  0  0,213,-36,
13:23:20:46,57019,31.7188,0.99989   0.0048325   0.0052878   -0.012821,0.54597     0.61298     -1.4664,0.0038395   0.0023708  -0.0013008,0.00099468   0.0092926  -0.0052223,-0.1037     0.10266      9.7734,0  0  0,0  0  0,0  0  0,213,-36,
13:23:20:80,57020,31.7188,0.99989   0.0046949   0.0054133    -0.01288,0.52999      0.6272     -1.4731,0.0023193    0.002718 -0.00081921,0.0043182  0.00058651  -0.0035114,-0.10266    0.091187      9.7734,0  0  0,0  0  0,0  0  0,213,-36,
13:23:21:14,57021,31.7188,0.99989   0.0046839   0.0054319   -0.012873,0.5287     0.62931     -1.4723,0.0010138     0.00383 -0.00046372,-0.0028763 -0.00095987   0.0074806,-0.11035    0.089233      9.7891,0  0  0,0  0  0,0  0  0,213,-36,
13:23:21:48,57022,31.75,0.99989   0.0045853   0.0054973   -0.012849,0.51732     0.63664     -1.4696,0.0011721   0.0037708  -0.0010109,0.0020885   0.0099716   -0.010742,-0.10675    0.098145      9.7656,0  0  0,0  0  0,0  0  0,213,-36,
13:23:21:82,57023,31.75,0.99989   0.0046397   0.0054736   -0.012877,0.52358     0.63402     -1.4727,0.0021629   0.0035534 -0.00047803,0.0040169   0.0090103  -0.0038185,-0.10437    0.098511      9.7734,0  0  0,0  0  0,0  0  0,213,-36,
13:23:22:16,57024,31.75,0.99989   0.0046522   0.0054783    -0.01293,0.52496     0.63461     -1.4789,0.0014477   0.0035973 -0.00068474,-0.001092   0.0036697 -0.00018692,-0.1095    0.093201      9.7813,0  0  0,0  0  0,0  0  0,213,-37,
13:23:22:50,57025,31.75,0.99989   0.0047284   0.0054034   -0.012976,0.53378     0.62616     -1.4841,0.0028992   0.0021019 -0.00082874,0.0033016   0.0088806   -0.014473,-0.10352     0.10004      9.7656,0  0  0,0  0  0,0  0  0,213,-36,
13:23:22:84,57026,31.75,0.99989   0.0047685   0.0053761   -0.013079,0.53835     0.62315     -1.4958,0.00048876   0.0051079 -0.00022542,-0.003355   0.0010662  -0.0065193,-0.1098    0.092712      9.7734,0  0  0,0  0  0,0  0  0,213,-36,
13:23:23:18,57027,31.75,0.99989   0.0048302   0.0053158    -0.01319,0.54545      0.6164     -1.5086,0.0033722   0.0022926  -0.0011377,0.0031948  -0.0059052  -0.0049286,-0.10168    0.087402      9.7734,0  0  0,0  0  0,0  0  0,213,-36,
13:23:23:52,57028,31.7344,0.99989   0.0047362   0.0054001   -0.013167,0.53456      0.6259      -1.506,0.00030208    0.005085 -0.00053406,0.0070152    0.004818  -0.0032177,-0.10004    0.096069      9.7734,0  0  0,0  0  0,0  0  0,213,-36,
13:23:23:86,57029,31.7344,0.99989   0.0047377   0.0053901   -0.013083,0.5348     0.62471     -1.4964,0.0037918  0.00094461 -0.00070143,-0.0019989  0.00056219  -0.0035229,-0.10834     0.09198      9.7734,0  0  0,0  0  0,0  0  0,213,-36,
13:23:24:20,57030,31.7344,0.99989   0.0046289   0.0054722   -0.012894,0.52233     0.63385     -1.4748,-0.00026369   0.0061035 -0.00028157,0.00019646   0.0068398  -0.0036964,-0.1084    0.095764      9.7734,0  0  0,0  0  0,0  0  0,213,-37,
13:23:24:54,57031,31.7656,0.99989   0.0046469   0.0054759   -0.012761,0.52447     0.63423     -1.4595,0.0041885   0.0014906  -0.0013809,0.01078   0.0092163   0.0018663,-0.097534    0.099243      9.7813,0  0  0,0  0  0,0  0  0,213,-36,
13:23:24:88,57032,31.7656,0.99989   0.0046351   0.0055001   -0.012634,0.52317     0.63692     -1.4449,0.0018396   0.0032215 -9.9242e-05,-0.0003159   0.0085144   -0.004364,-0.10919    0.097778      9.7734,0  0  0,0  0  0,0  0  0,213,-36,
13:23:25:22,57033,31.7656,0.99989   0.0046898   0.0054426   -0.012788,0.52942     0.63049     -1.4625,0.0036888  0.00085783  -0.0011883,0.007122   0.0022755  -0.0027294,-0.10028    0.093018      9.7734,0  0  0,0  0  0,0  0  0,213,-36,
13:23:25:56,57034,31.75,0.99989   0.0047706   0.0053825   -0.012639,0.53886     0.62365     -1.4454,-0.00054359   0.0058174  0.00018072,-0.0033245   0.0085754  -0.0073128,-0.11011     0.10016      9.7734,0  0  0,0  0  0,0  0  0,213,-36,
13:23:25:90,57035,31.75,0.9999   0.0048447   0.0053207   -0.012577,0.54747     0.61663     -1.4383,0.0039139   0.0021172 -0.00087929,0.0010996   0.0022068    0.005497,-0.10413    0.095947      9.7813,0  0  0,0  0  0,0  0  0,213,-36,
13:23:26:24,57036,31.75,0.99989   0.0048357   0.0053245   -0.012701,0.54636     0.61713     -1.4526,0.00031781    0.004612 -1.6153e-05,-0.0033627  -0.0029964   -0.013069,-0.10858    0.089905      9.7656,0  0  0,0  0  0,0  0  0,213,-36,
13:23:26:58,57037,31.7656,0.99989   0.0047696   0.0053599   -0.012884,0.53862     0.62119     -1.4735,0.0040398   0.0011683  -0.0014362,0.0065613   0.0095978   0.0016985,-0.099487     0.10193      9.7813,0  0  0,0  0  0,0  0  0,213,-36,
13:23:26:92,57038,31.7656,0.99989   0.0046929   0.0054171   -0.013072,0.52964     0.62772     -1.4951,-0.0005331   0.0057755 -0.00044799,0.0029469   0.0020256  0.00056076,-0.10449    0.092285      9.7813,0  0  0,0  0  0,0  0  0,213,-36,
13:23:27:26,57039,31.7656,0.99989   0.0046321   0.0054613   -0.013027,0.52263     0.63268       -1.49,0.0021343   0.0038967 -0.00094652,0.0063858   0.0036583   0.0022068,-0.10175    0.093079      9.7813,0  0  0,0  0  0,0  0  0,213,-37,
13:23:27:60,57040,31.7656,0.99989   0.0046058   0.0054815   -0.013111,0.51954     0.63499     -1.4996,-0.0003655   0.0051308 -0.00020397,-0.0036774    0.014359  -0.0056458,-0.11255     0.10266      9.7734,0  0  0,0  0  0,0  0  0,213,-37,
13:23:27:94,57041,31.7656,0.99989   0.0045995   0.0054851   -0.013045,0.51884     0.63536     -1.4921,0.0033646   0.0023003  -0.0011387,0.005291  0.00030375  -0.0060577,-0.10297    0.089111      9.7734,0  0  0,0  0  0,0  0  0,213,-37,
13:23:28:28,57042,31.75,0.99989   0.0047377   0.0053525   -0.013036,0.53488     0.62037      -1.491,0.0025558   0.0032063  -0.0011053,0.00014448   0.0012407   0.0048027,-0.10577    0.092651      9.7813,0  0  0,0  0  0,0  0  0,213,-36,
13:23:28:62,57043,31.75,0.99989   0.0047566   0.0053231   -0.013037,0.5371     0.61703     -1.4912,0.0022297   0.0032253  -0.0010653,0.0040588  -0.0043259  -0.0066376,-0.10107    0.087463      9.7734,0  0  0,0  0  0,0  0  0,213,-36,
13:23:28:96,57044,31.75,0.99989   0.0048301   0.0052408   -0.013041,0.54563     0.60772     -1.4916,0.0012579   0.0043373  -0.0009222,-0.0097122   3.773e-05  -0.0083618,-0.1134    0.092773      9.7734,0  0  0,0  0  0,0  0  0,213,-37,
13:23:29:30,57045,31.75,0.99989   0.0048056   0.0052723   -0.013139,0.54272     0.61134     -1.5029,0.0025921    0.002676  -0.0015574,-0.0067749  -0.0022144 -0.00014305,-0.11096    0.090332      9.7813,0  0  0,0  0  0,0  0  0,213,-36,
13:23:29:64,57046,31.75,0.99989   0.0047532   0.0053092   -0.013236,0.5366     0.61554      -1.514,0.0004158   0.0047188 -0.00046849,-0.0006814   0.0020847  -0.0093842,-0.10583    0.093445      9.7734,0  0  0,0  0  0,0  0  0,213,-36,
13:23:29:98,57047,31.75,0.99988   0.0046957   0.0053547   -0.013407,0.52983     0.62075     -1.5335,0.00069857   0.0036888  -0.0011892,-0.00082445   0.0015926  -0.0057907,-0.10675    0.091858      9.7734,0  0  0,0  0  0,0  0  0,213,-35,
13:23:30:32,57048,31.75,0.99988   0.0046641   0.0053987   -0.013476,0.52611     0.62579     -1.5415,0.0026245   0.0026379 -0.00072908,-0.0005188  -0.0044785  5.0545e-05,-0.10712    0.085388      9.7813,0  0  0,0  0  0,0  0  0,213,-36,
13:23:30:66,57049,31.75,0.99988    0.004608   0.0054654   -0.013538,0.51954     0.63338     -1.5485,-0.0010557   0.0061798 -0.00061226,0.0074043    0.014153   -0.011765,-0.1012     0.10266      9.7656,0  0  0,0  0  0,0  0  0,213,-36,
13:23:31:00,57050,31.75,0.99988   0.0046591   0.0054074    -0.01349,0.52551     0.62678     -1.5431,0.002636   0.0023575 -0.00062609,0.0062103   0.0075722   -0.010567,-0.10077    0.097412      9.7656,0  0  0,0  0  0,0  0  0,213,-36,
13:23:31:34,57051,31.7344,0.99988   0.0046756   0.0053635   -0.013563,0.52743     0.62182     -1.5514,-3.4988e-05   0.0050735 -0.00098705,-0.0030575  -0.0070267   0.0020485,-0.10919    0.082764      9.7813,0  0  0,0  0  0,0  0  0,213,-36,
13:23:31:68,57052,31.7344,0.99988   0.0047614   0.0052769   -0.013666,0.53733     0.61208     -1.5632,0.0017576   0.0030537  -0.0010815,-0.00042892    0.005291  -0.0056458,-0.10492    0.096924      9.7734,0  0  0,0  0  0,0  0  0,213,-36,
13:23:32:02,57053,31.7344,0.99988   0.0048002   0.0052606   -0.013621,0.54183     0.61025     -1.5581,0.00072908    0.004467 -8.2731e-05,-0.0055962  -0.0037212  -0.0078278,-0.10968     0.08844      9.7734,0  0  0,0  0  0,0  0  0,213,-37,
13:23:32:36,57054,31.7344,0.99988   0.0048484   0.0052455    -0.01367,0.54734     0.60863     -1.5636,0.0037098    0.001997 -0.00082397,-0.0042915  -0.0094986  0.00067329,-0.10779    0.083984      9.7813,0  0  0,0  0  0,0  0  0,213,-36,
13:23:32:70,57055,31.7344,0.99988    0.004793   0.0052694    -0.01343,0.5411     0.61115     -1.5362,0.00075722   0.0039825 -0.00018311,-0.0049706  -0.0059929  -0.0044212,-0.10913    0.086121      9.7734,0  0  0,0  0  0,0  0  0,213,-37,
13:23:33:04,57056,31.7344,0.99989   0.0046712   0.0053723   -0.013081,0.52721     0.62257     -1.4962,0.0029316   0.0023804  -0.0011778,0.0066528  -0.0014114  -0.0011644,-0.099426    0.088867      9.7813,0  0  0,0  0  0,0  0  0,213,-36,
13:23:33:38,57057,31.75,0.99989    0.004603   0.0054208   -0.012812,0.51949     0.62788     -1.4654,-0.0014343   0.0060883 -0.00020874,0.0046082   0.0071449  0.00093651,-0.10303    0.095642      9.7813,0  0  0,0  0  0,0  0  0,213,-36,
13:23:33:72,57058,31.75,0.99989    0.004573   0.0054465   -0.012671,0.51611     0.63071     -1.4492,0.0048904  0.00099373  -0.0017996,0.01152   0.0094833  -0.0087738,-0.096008    0.098083      9.7734,0  0  0,0  0  0,0  0  0,213,-36,
13:23:34:06,57059,31.75,0.99989   0.0045804   0.0054341    -0.01285,0.51686      0.6294     -1.4697,0.00072908   0.0045319  -0.0010405,0.0074921   0.0068474  -0.0040092,-0.10016    0.095154      9.7734,0  0  0,0  0  0,0  0  0,213,-37,
13:23:34:40,57060,31.75,0.99989   0.0046585   0.0053535   -0.013001,0.52583     0.62036     -1.4871,0.0040169  0.00076962  -0.0017347,-0.0020161    0.012024   0.0028019,-0.10797     0.10199      9.7813,0  0  0,0  0  0,0  0  0,213,-36,
13:23:34:74,57061,31.75,0.99989   0.0047071   0.0053015   -0.013153,0.53138     0.61454     -1.5045,0.00045872   0.0056458 -0.00087738,0.00056219   0.0022354   0.0043678,-0.10468    0.092896      9.7813,0  0  0,0  0  0,0  0  0,213,-36,
13:23:35:08,57062,31.75,0.99989   0.0047647   0.0052295   -0.013002,0.53818     0.60631     -1.4871,0.0031567   0.0014944  -0.0010996,0.0023098  -0.0019779  -0.0031548,-0.10089    0.090027      9.7734,0  0  0,0  0  0,0  0  0,213,-37,
13:23:35:42,57063,31.75,0.99989   0.0047901   0.0051956   -0.012689,0.54133     0.60229     -1.4513,0.0019608   0.0025635  -0.0002296,-0.013802   0.0027504   0.0032177,-0.11664    0.094849      9.7813,0  0  0,0  0  0,0  0  0,213,-36,
13:23:35:76,57064,31.75,0.9999   0.0047247   0.0052494   -0.012507,0.53387     0.60826     -1.4305,0.0038548   0.0022469  -0.0012112,-0.0034008   0.0055771  -0.0041313,-0.10718    0.096802      9.7734,0  0  0,0  0  0,0  0  0,213,-37,
13:23:36:10,57065,31.75,0.9999   0.0046807   0.0052867   -0.012399,0.52884     0.61241      -1.418,-0.00070667   0.0052147 -0.00035501,0.0032387   1.055e-05  -0.0099716,-0.10138    0.090027      9.7656,0  0  0,0  0  0,0  0  0,213,-36,
13:23:36:44,57066,31.7344,0.9999   0.0046034   0.0053413   -0.012261,0.51999     0.61848     -1.4022,0.0050697   0.0010586  -0.0016041,0.00011182   0.0073318   -0.001811,-0.10535    0.096375      9.7813,0  0  0,0  0  0,0  0  0,213,-36,
13:23:36:78,57067,31.7344,0.9999    0.004637   0.0053346   -0.012215,0.52388     0.61774      -1.397,0.001482   0.0039558 -0.00087357,-8.0466e-06   0.0016069   -0.002861,-0.10547    0.091003      9.7734,0  0  0,0  0  0,0  0  0,213,-36,
13:23:37:12,57068,31.7344,0.9999   0.0046159    0.005356     -0.0121,0.5215      0.6201     -1.3838,0.0021763    0.003397 -0.00091457,0.00087547    0.011505  -0.0059547,-0.10516     0.10052      9.7734,0  0  0,0  0  0,0  0  0,213,-36,
13:23:37:46,57069,31.75,0.9999   0.0046626   0.0052929    -0.01204,0.52698     0.61291     -1.3769,0.0027771   0.0021858  -0.0010176,-0.006588   0.0039902  0.00026321,-0.11115    0.093872      9.7813,0  0  0,0  0  0,0  0  0,213,-37,
13:23:37:80,57070,31.75,0.9999   0.0047236   0.0052383   -0.012085,0.53401     0.60676     -1.3821,0.00044012   0.0039482 -0.00042486,-0.004528   0.0055046  -0.0032101,-0.10822    0.096375      9.7734,0  0  0,0  0  0,0  0  0,213,-36,
13:23:38:14,57071,31.7344,0.9999   0.0048362   0.0051543   -0.012115,0.54701      0.5973     -1.3855,0.0015717   0.0032578 -0.00073481,0.00030994  -0.0042572  -0.0018711,-0.1015    0.089111      9.7813,0  0  0,0  0  0,0  0  0,213,-36,
13:23:38:48,57072,31.7344,0.9999   0.0048026   0.0051746   -0.012182,0.54309     0.59962     -1.3932,0.0012493   0.0034599 -0.00037837,0.00634   0.0021019  -0.0051308,-0.096008    0.094849      9.7734,0  0  0,0  0  0,0  0  0,213,-36,
13:23:38:82,57073,31.7344,0.9999   0.0047887   0.0051913   -0.012455,0.54132     0.60166     -1.4245,-0.00037885   0.0057564  0.00028229,-0.00062704   0.0017319    -0.01178,-0.10345    0.093811      9.7656,0  0  0,0  0  0,0  0  0,213,-36,
13:23:39:16,57074,31.75,0.9999    0.004706   0.0052738    -0.01241,0.53175     0.61097     -1.4193,0.00054264   0.0048676 -0.00047827,0.00051641  -0.0027313   -0.015099,-0.1037    0.087769      9.7656,0  0  0,0  0  0,0  0  0,213,-36,
13:23:39:50,57075,31.75,0.9999   0.0047031   0.0052683   -0.012295,0.5315     0.61028     -1.4062,0.003252    0.002634  -0.0010347,-0.0025978      0.0042   0.0061493,-0.10687    0.095093      9.7891,0  0  0,0  0  0,0  0  0,213,-36,
13:23:39:84,57076,31.75,0.9999   0.0046455   0.0053275   -0.012507,0.52468     0.61709     -1.4304,0.00095987   0.0045815 -0.00063276,0.0033665   0.0039787  -0.0036144,-0.10211    0.093506      9.7734,0  0  0,0  0  0,0  0  0,213,-36,
13:23:40:18,57077,31.75,0.99989   0.0046875   0.0052865   -0.012662,0.52946     0.61253     -1.4482,0.0034866   0.0014067 -0.00094271,0.00083113   0.0044212   0.0027981,-0.10364    0.095032      9.7813,0  0  0,0  0  0,0  0  0,213,-36,
13:23:40:52,57078,31.75,0.99989   0.0047715   0.0052127   -0.012735,0.53915     0.60424     -1.4566,-0.00031376   0.0055466 -0.00076103,-0.0068169  -0.0064011   0.0036793,-0.11005    0.085266      9.7813,0  0  0,0  0  0,0  0  0,213,-37,
13:23:40:86,57079,31.75,0.99989   0.0048878   0.0051126   -0.012964,0.55248     0.59307     -1.4828,0.0043449   0.0024643  -0.0014677,-0.0023613   0.0055161   -0.012932,-0.10352    0.099915      9.7656,0  0  0,0  0  0,0  0  0,213,-37,
13:23:41:20,57080,31.75,0.99989   0.0049036   0.0050975   -0.012963,0.55432     0.59136     -1.4827,0.00012243   0.0052299 -0.00028586,-0.0032921   0.0002563  -0.0016937,-0.10437    0.094604      9.7813,0  0  0,0  0  0,0  0  0,213,-36,
13:23:41:54,57081,31.75,0.99989   0.0049474   0.0050583   -0.013041,0.55934     0.58697     -1.4917,0.0043449   0.0012293 -0.00080204,-0.0077515  -0.0020638  -0.0066452,-0.1076    0.093384      9.7734,0  0  0,0  0  0,0  0  0,213,-37,
13:23:41:88,57082,31.75,0.99989    0.004874   0.0051181    -0.01315,0.55079     0.59378     -1.5041,-0.001605   0.0059013 -0.00054836,-0.0063438   0.0081787  -0.0055923,-0.10809     0.10162      9.7734,0  0  0,0  0  0,0  0  0,213,-36,
13:23:42:22,57083,31.7344,0.99989   0.0048106   0.0051719   -0.013148,0.54344     0.59985     -1.5038,0.0014982    0.003479 -0.00050926,-0.0022354  -0.0018358   -0.006424,-0.10449    0.090759      9.7734,0  0  0,0  0  0,0  0  0,213,-36,
13:23:42:56,57084,31.7344,0.99989    0.004733   0.0052253   -0.013228,0.53442     0.60589     -1.5131,-0.00076437   0.0060501  -0.0005827,-0.007103  -0.0040512   0.0017996,-0.11066    0.086731      9.7813,0  0  0,0  0  0,0  0  0,213,-36,
13:23:42:90,57085,31.7344,0.99989    0.004711   0.0052578   -0.013312,0.5318     0.60963     -1.5227,0.0036106   0.0014229 -0.00082493,0.0013428    0.011513   -0.019485,-0.1026     0.10229      9.7578,0  0  0,0  0  0,0  0  0,213,-36,
13:23:43:24,57086,31.7344,0.99989   0.0047273    0.005233   -0.013211,0.53376     0.60676     -1.5111,0.0024014   0.0030098 -0.00082922,-0.0058403   0.0058861   -0.006855,-0.10944    0.096863      9.7734,0  0  0,0  0  0,0  0  0,213,-36,
13:23:43:58,57087,31.7344,0.99989    0.004786    0.005167   -0.013035,0.5407     0.59919     -1.4909,0.0030575    0.002676 -0.00066566,-0.0035419  0.00064707   0.0023785,-0.10577    0.093018      9.7813,0  0  0,0  0  0,0  0  0,213,-36,
13:23:43:92,57088,31.7344,0.99989   0.0048659   0.0051106    -0.01292,0.55     0.59278     -1.4778,-3.0279e-05   0.0051613 -0.00017583,-0.00018919     0.01062   -0.019531,-0.10162     0.10413      9.7578,0  0  0,0  0  0,0  0  0,213,-36,
13:23:44:26,57089,31.75,0.99989   0.0048934   0.0050882   -0.012715,0.55331     0.59015     -1.4543,0.0026073   0.0026627 -0.00074768,-0.0054169  -0.0078735    0.011261,-0.10596    0.086609      9.7891,0  0  0,0  0  0,0  0  0,213,-37,
13:23:44:60,57090,31.75,0.9999   0.0049646   0.0050066   -0.012607,0.56165     0.58084     -1.4419,0.0025826   0.0025291 -0.00062084,-0.00089598  -0.0066986  -0.0021362,-0.099731    0.089233      9.7734,0  0  0,0  0  0,0  0  0,213,-36,
13:23:44:94,57091,31.75,0.9999   0.0049037   0.0050638   -0.012373,0.55473     0.58718      -1.415,0.0031719   0.0021038 -0.00069094,-0.0055199    0.008316  -0.0096054,-0.10571     0.10291      9.7734,0  0  0,0  0  0,0  0  0,213,-36,
13:23:45:28,57092,31.75,0.9999   0.0048652   0.0050981   -0.012245,0.55033     0.59097     -1.4004,0.0010214   0.0041466 -0.00048161,-0.001689  -0.0031757    0.011024,-0.10266    0.090759      9.7891,0  0  0,0  0  0,0  0  0,213,-36,
13:23:45:62,57093,31.75,0.9999   0.0047487   0.0051928   -0.012052,0.53697     0.60156     -1.3783,0.0011511   0.0035782 -0.00031996,-0.0070686   0.0078812   0.0034657,-0.10999    0.099365      9.7813,0  0  0,0  0  0,0  0  0,213,-37,
13:23:45:96,57094,31.75,0.9999   0.0047361   0.0052232   -0.012077,0.53547     0.60504     -1.3811,0.0010176   0.0044785   -0.001214,-0.00044155    0.016479   -0.012611,-0.10406     0.10767      9.7656,0  0  0,0  0  0,0  0  0,213,-36,
13:23:46:30,57095,31.75,0.9999   0.0046838   0.0052653   -0.011916,0.52952     0.60971     -1.3628,0.0017014   0.0030155 -0.00088596,0.002615  -0.0091019   0.0015488,-0.1012     0.08136      9.7813,0  0  0,0  0  0,0  0  0,213,-36,
13:23:46:64,57096,31.75,0.99991   0.0047521   0.0052128   -0.011809,0.53748     0.60373     -1.3504,0.0015287   0.0033264 -0.00026178,0.0065498 -0.00095797  -0.0067444,-0.096375    0.090881      9.7734,0  0  0,0  0  0,0  0  0,213,-36,
13:23:46:98,57097,31.75,0.99991   0.0047899   0.0051796   -0.011808,0.54186     0.59998     -1.3503,0.0017262   0.0033607 -0.00090933,-0.0032692  -0.0013809  -0.0063667,-0.10559    0.091003      9.7734,0  0  0,0  0  0,0  0  0,213,-36,
13:23:47:32,57098,31.7656,0.9999   0.0048656   0.0051273   -0.011878,0.55057     0.59412     -1.3584,0.0022049   0.0034084 -0.00020349,-0.0071564  -0.0075302   0.0028343,-0.1084    0.086365      9.7813,0  0  0,0  0  0,0  0  0,213,-36,
13:23:47:66,57099,31.7656,0.99991   0.0048626   0.0051326    -0.01179,0.55026     0.59467     -1.3483,0.00084257   0.0041885  -0.0005641,0.0031853    0.011322   -0.012726,-0.098511      0.1051      9.7656,0  0  0,0  0  0,0  0  0,213,-36,
13:23:48:00,57100,31.7656,0.99991    0.004866   0.0051137   -0.011677,0.55075     0.59245     -1.3353,0.0020752   0.0031624 -0.00096607,-0.0019035   0.0035877   -0.001421,-0.10309    0.097595      9.7813,0  0  0,0  0  0,0  0  0,213,-36,
13:23:48:34,57101,31.75,0.99991   0.0047907   0.0051778   -0.011707,0.54202     0.59972     -1.3388,-0.00026512   0.0055122 -0.00022078,-0.0045471  -0.0072861  -0.0034752,-0.10687      0.0849      9.7734,0  0  0,0  0  0,0  0  0,213,-36,
13:23:48:68,57102,31.75,0.9999   0.0047356   0.0052015    -0.01201,0.53549     0.60252     -1.3735,0.0037727   0.0026455  -0.0011482,0.004837    0.013748   -0.015381,-0.098083     0.10535      9.7656,0  0  0,0  0  0,0  0  0,213,-36,
13:23:49:02,57103,31.7656,0.9999   0.0046819   0.0052501   -0.011864,0.52935     0.60793     -1.3568,0.0015593   0.0032711 -0.00096416,-0.0084534  -0.0010519  -0.0063438,-0.11212     0.08905      9.7734,0  0  0,0  0  0,0  0  0,213,-36,
13:23:49:36,57104,31.7656,0.9999   0.0046658     0.00526   -0.012047,0.52738     0.60915     -1.3778,0.0045776    0.001545 -0.00077581,-0.0061531  -0.0035591  0.00055408,-0.10986    0.086609      9.7813,0  0  0,0  0  0,0  0  0,213,-36,
13:23:49:70,57105,31.7656,0.9999   0.0046868   0.0052283   -0.012146,0.52978      0.6056     -1.3891,0.00084305   0.0040436  -0.0012493,-0.0029488   0.0057983  -0.0024052,-0.10651    0.096069      9.7734,0  0  0,0  0  0,0  0  0,213,-36,
13:23:50:04,57106,31.7344,0.9999   0.0047581   0.0051583   -0.012245,0.53798     0.59773     -1.4004,0.0040932   0.0017185  -0.0010767,-0.00061226   0.0019703  -0.0059242,-0.10242    0.093933      9.7734,0  0  0,0  0  0,0  0  0,213,-36,
13:23:50:38,57107,31.7344,0.9999   0.0048049   0.0051114   -0.012444,0.5433     0.59252     -1.4232,-0.0017567   0.0066376 -9.0063e-05,-0.0098648  -0.0018492    0.008049,-0.11133    0.090393      9.7891,0  0  0,0  0  0,0  0  0,213,-37,
13:23:50:72,57108,31.7344,0.9999   0.0048434   0.0050737   -0.012387,0.54779     0.58823     -1.4167,0.0039558  0.00088167  -0.0016212,0.00017083   0.0037689  -0.0047951,-0.10004    0.097473      9.7734,0  0  0,0  0  0,0  0  0,213,-36,
13:23:51:06,57109,31.75,0.9999   0.0047861   0.0051046   -0.012589,0.54106     0.59179     -1.4399,-0.0016499    0.006382  0.00029683,-0.0052223    0.003767   -0.011406,-0.10651    0.095581      9.7656,0  0  0,0  0  0,0  0  0,213,-37,
13:23:51:40,57110,31.75,0.99989   0.0047386   0.0051361   -0.012709,0.5355      0.5954     -1.4536,0.0017138   0.0031528  -0.0005517,-0.011749  -0.0086441   0.0022316,-0.11316    0.082458      9.7813,0  0  0,0  0  0,0  0  0,213,-36,
13:23:51:74,57111,31.75,0.9999   0.0046802    0.005154   -0.012665,0.52882     0.59735     -1.4486,-0.00045037   0.0053024 -4.3511e-06,0.00013673  -0.0033455   -0.010605,-0.10181    0.086609      9.7656,0  0  0,0  0  0,0  0  0,213,-36,
13:23:52:08,57112,31.75,0.9999    0.004619   0.0052005   -0.012581,0.52179     0.60255      -1.439,0.0034809   0.0013666  -0.0012369,0.0012617    0.010048  -0.0064621,-0.10156    0.099243      9.7734,0  0  0,0  0  0,0  0  0,213,-36,
13:23:52:42,57113,31.75,0.9999    0.004599   0.0051876   -0.012296,0.51968     0.60089     -1.4064,-0.00071716   0.0051155 -0.00012922,-0.0071411  -0.0012445   0.0057373,-0.10986    0.087097      9.7813,0  0  0,0  0  0,0  0  0,213,-36,
13:23:52:76,57114,31.75,0.9999   0.0046565   0.0051296   -0.012104,0.52647     0.59422     -1.3844,0.0041542   0.0013542  -0.0011549,0.0054626   0.0044594  -0.0068092,-0.095764    0.094604      9.7734,0  0  0,0  0  0,0  0  0,213,-36,
13:23:53:10,57115,31.75,0.9999   0.0047494   0.0050434    -0.01208,0.53724     0.58445     -1.3816,-0.00010145   0.0051193  2.8014e-05,-0.0050964   0.0075378  -0.0078964,-0.1051    0.098877      9.7734,0  0  0,0  0  0,0  0  0,213,-36,
13:23:53:44,57116,31.75,0.9999   0.0048002   0.0049948   -0.012104,0.54311     0.57898     -1.3844,0.0034218   0.0017138   -0.001687,-0.0023193  -0.0031242  -0.0027657,-0.10089    0.089661      9.7734,0  0  0,0  0  0,0  0  0,213,-36,
13:23:53:78,57117,31.75,0.9999   0.0048519   0.0049713   -0.012175,0.54903     0.57639     -1.3925,0.0019455   0.0035477 -0.00088787,-0.0017099   0.0057907  -0.0030994,-0.10022    0.099426      9.7734,0  0  0,0  0  0,0  0  0,213,-36,
13:23:54:12,57118,31.75,0.9999   0.0048229   0.0049895   -0.012289,0.54562      0.5785     -1.4055,0.0022221   0.0024242  -0.0011845,-0.0021076   0.0078888     -0.0186,-0.10077     0.10083      9.7578,0  0  0,0  0  0,0  0  0,213,-36,
13:23:54:46,57119,31.75,0.9999    0.004816   0.0049889   -0.012541,0.54468     0.57856     -1.4344,0.0010548    0.004303   4.369e-05,-0.0067101  -0.0084305   0.0013638,-0.10535    0.084351      9.7813,0  0  0,0  0  0,0  0  0,213,-36,
13:23:54:80,57120,31.75,0.9999   0.0046586   0.0051087   -0.012687,0.52639     0.59214     -1.4511,0.00043678   0.0048485 -0.00036454,0.0021362   0.0027122  -0.0054855,-0.09906    0.092468      9.7734,0  0  0,0  0  0,0  0  0,213,-36,
13:23:55:14,57121,31.75,0.99989   0.0046514   0.0050802   -0.012824,0.52553     0.58893     -1.4669,0.0018454   0.0036907 -0.00046778,-0.0047264    0.006321  -0.0035019,-0.10541    0.095886      9.7734,0  0  0,0  0  0,0  0  0,213,-36,
13:23:55:48,57122,31.75,0.99989    0.004632   0.0051201   -0.012837,0.52324     0.59348     -1.4684,0.0012579   0.0036716 -0.00055504,-0.0097198  -0.0056419   0.0062675,-0.11096    0.083435      9.7891,0  0  0,0  0  0,0  0  0,213,-36,
13:23:55:82,57123,31.75,0.99989   0.0047108   0.0050409   -0.012949,0.53231     0.58459     -1.4812,0.0024891   0.0024662 -0.00058365,-0.0032959    0.015259  -0.0045967,-0.10333     0.10608      9.7734,0  0  0,0  0  0,0  0  0,213,-36,
13:23:56:16,57124,31.75,0.99989   0.0047682    0.004979   -0.013031,0.53894     0.57762     -1.4906,0.0031738    0.002655 -0.00034451,-0.017044    0.010071  -0.0061569,-0.11572     0.10168      9.7734,0  0  0,0  0  0,0  0  0,213,-36,
13:23:56:50,57125,31.75,0.99989    0.004854   0.0049059   -0.013073,0.54886     0.56939     -1.4954,0.0032997   0.0022717  -0.0013227,-0.0073776  -0.0086212   0.0054321,-0.10425    0.085083      9.7813,0  0  0,0  0  0,0  0  0,213,-37,
13:23:56:84,57126,31.75,0.99989   0.0048628   0.0048908   -0.013192,0.54982     0.56775      -1.509,-2.3901e-05   0.0051613 -0.00046182,-0.0070839   0.0083923  0.00071812,-0.10437     0.10187      9.7813,0  0  0,0  0  0,0  0  0,213,-37,
13:23:57:18,57127,31.75,0.99989   0.0048758   0.0048773   -0.013153,0.55135     0.56619     -1.5045,0.0035   0.0016212  -0.0014105,-0.01741   0.0016661   -0.009201,-0.11383    0.095398      9.7734,0  0  0,0  0  0,0  0  0,213,-36,
13:23:57:52,57128,31.75,0.99989   0.0047604   0.0049675    -0.01307,0.53804     0.57631      -1.495,0.00035071   0.0053177 -0.00019813,-0.0094299  -0.0059395  -0.0025787,-0.10779     0.08551      9.7734,0  0  0,0  0  0,0  0  0,213,-36,
13:23:57:86,57129,31.75,0.9999   0.0047306   0.0049957   -0.012693,0.53479      0.5793     -1.4518,0.003994   0.0011549 -0.00074244,-0.0010576    0.004509 -0.00072861,-0.099792    0.096008      9.7813,0  0  0,0  0  0,0  0  0,213,-37,
13:23:58:20,57130,31.7656,0.9999   0.0046476   0.0050547   -0.012397,0.52537     0.58578     -1.4179,-0.00012028    0.004837  0.00033855,-0.0032597   0.0029469   0.0020676,-0.10345    0.092407      9.7813,0  0  0,0  0  0,0  0  0,213,-36,
13:23:58:54,57131,31.7656,0.9999   0.0046448   0.0050559   -0.012109,0.52522     0.58577      -1.385,0.0013962   0.0039368 -0.00075865,-0.00096941  -0.0017424  -0.0014648,-0.10095     0.08783      9.7813,0  0  0,0  0  0,0  0  0,213,-36,
13:23:58:88,57132,31.7656,0.9999   0.0046577    0.005036   -0.012058,0.52676     0.58347     -1.3791,-0.0005579   0.0056992 -0.00045466,-0.0068893   0.0096893  -0.0046387,-0.10687    0.099182      9.7734,0  0  0,0  0  0,0  0  0,213,-36,
13:23:59:22,57133,31.75,0.9999    0.004724   0.0049706    -0.01197,0.53449     0.57602      -1.369,0.0049973   0.0012054  -0.0014896,-0.014679  -0.0033646 -0.00021076,-0.11267     0.08783      9.7813,0  0  0,0  0  0,0  0  0,213,-36,
13:23:59:56,57134,31.75,0.99991   0.0048479   0.0048629   -0.011957,0.54885     0.56385     -1.3676,0.0020714   0.0033836 -0.00037622,-0.0040321   0.0015707 -4.7684e-06,-0.10028    0.095215      9.7813,0  0  0,0  0  0,0  0  0,213,-36,
13:23:59:90,57135,31.7656,0.9999   0.0049042   0.0048091   -0.012083,0.5553     0.55783      -1.382,0.0038872  0.00090837    -0.00142,-0.0090179  0.00017297  -0.0098572,-0.10388    0.094849      9.7656,0  0  0,0  0  0,0  0  0,213,-36,
13:24:00:24,57136,31.7656,0.9999   0.0049029   0.0047928    -0.01226,0.55508     0.55606     -1.4022,-0.0010967   0.0062637  8.5473e-05,-0.0060234  -0.0063515  -0.0025215,-0.10101    0.087952      9.7734,0  0  0,0  0  0,0  0  0,213,-36,
13:24:00:58,57137,31.7656,0.9999    0.004903   0.0047993   -0.012366,0.55502     0.55686     -1.4144,0.0047226   0.0018883 -0.00097418,-0.01326  -0.0031643   0.0028076,-0.10809    0.091553      9.7813,0  0  0,0  0  0,0  0  0,213,-36,
13:24:00:92,57138,31.7656,0.9999   0.0048258   0.0048549   -0.012465,0.54605     0.56318     -1.4258,-0.00088787   0.0057106 -0.00024295,-0.002758   0.0056648  0.00018024,-0.099243    0.098572      9.7813,0  0  0,0  0  0,0  0  0,213,-37,
13:24:01:26,57139,31.7656,0.9999   0.0047663   0.0048905   -0.012529,0.53914      0.5672     -1.4332,0.0037327   0.0018177  -0.0010605,-0.011986    -0.00107  0.00085163,-0.10864    0.090881      9.7813,0  0  0,0  0  0,0  0  0,213,-37,
13:24:01:60,57140,31.7656,0.9999   0.0046942   0.0049734   -0.012533,0.53076     0.57661     -1.4336,-0.00059557   0.0056419 -0.00077105,-0.0055962    0.003252  -0.0006752,-0.10431    0.093445      9.7813,0  0  0,0  0  0,0  0  0,213,-36,
13:24:01:94,57141,31.75,0.9999   0.0046519   0.0050064   -0.012514,0.52587     0.58032     -1.4314,0.00086117   0.0037651 -0.00037813,-0.002306    0.005703 -0.00055027,-0.1015    0.095337      9.7813,0  0  0,0  0  0,0  0  0,213,-36,
13:24:02:28,57142,31.75,0.9999   0.0047566   0.0049225   -0.012473,0.53801     0.57083     -1.4266,-3.3975e-06   0.0048981 -0.00020838,-0.011765  -0.0066299   -0.017075,-0.10901    0.084595      9.7656,0  0  0,0  0  0,0  0  0,213,-36,
13:24:02:62,57143,31.75,0.9999   0.0048062   0.0048963   -0.012526,0.5437     0.56792     -1.4327,0.0031223   0.0020218 -0.00083923,-0.013229   -0.010025  -0.0013151,-0.10974    0.082581      9.7813,0  0  0,0  0  0,0  0  0,213,-36,
13:24:02:96,57144,31.7813,0.9999   0.0048969   0.0048012   -0.012541,0.55422     0.55716     -1.4345,-0.000875   0.0056725 -0.00074482,-0.014198  0.00060701   0.0082626,-0.10962    0.094666      9.7891,0  0  0,0  0  0,0  0  0,213,-37,
13:24:03:30,57145,31.7813,0.9999   0.0049067   0.0047875   -0.012421,0.55543     0.55554     -1.4207,0.0027714   0.0024147 -0.00025749,0.00089121   0.0078888  -0.0073318,-0.093933     0.10272      9.7734,0  0  0,0  0  0,0  0  0,213,-36,
13:24:03:64,57146,31.7813,0.9999   0.0049234   0.0047862   -0.012255,0.55743     0.55532     -1.4017,0.0001291   0.0047073 -0.00036669,-0.014259   0.0012865 -8.2016e-05,-0.10919    0.095947      9.7813,0  0  0,0  0  0,0  0  0,213,-36,
13:24:03:98,57147,31.75,0.9999    0.004846   0.0048585   -0.012155,0.54852     0.56345     -1.3902,0.0021305   0.0038528 -0.00089979,-0.0039177  0.00082445   0.0065079,-0.10022    0.094482      9.7891,0  0  0,0  0  0,0  0  0,213,-36,
13:24:04:32,57148,31.75,0.9999   0.0047953     0.00493   -0.012083,0.54265     0.57153      -1.382,0.0031719   0.0028362  -0.0008359,-0.0016565   0.0063515  -0.0055809,-0.099243    0.098999      9.7734,0  0  0,0  0  0,0  0  0,213,-36,
13:24:04:66,57149,31.75,0.9999   0.0047393   0.0049841   -0.012219,0.53609     0.57772     -1.3976,0.0016642   0.0038891 -0.00034714,-0.0091019   -0.003849   0.0046844,-0.10773    0.087463      9.7813,0  0  0,0  0  0,0  0  0,213,-36,
13:24:05:00,57150,31.75,0.9999   0.0047767   0.0049697   -0.012255,0.54038     0.57615     -1.4017,0.0017614   0.0037289 -0.00038552,-0.008194   0.0027905  -0.0011101,-0.10663    0.094849      9.7813,0  0  0,0  0  0,0  0  0,213,-36,
13:24:05:34,57151,31.75,0.9999   0.0047648   0.0049913   -0.012199,0.53901     0.57858     -1.3952,0.00059319   0.0055084  2.3425e-05,-0.00494   0.0070114   -0.013718,-0.10394    0.098633      9.7656,0  0  0,0  0  0,0  0  0,213,-37,
13:24:05:68,57152,31.75,0.9999   0.0048507   0.0049207   -0.012055,0.54904     0.57053     -1.3787,0.0030079   0.0034218  -0.0004487,-0.018311  -0.0060005   0.0067101,-0.1156    0.087463      9.7891,0  0  0,0  0  0,0  0  0,213,-37,
13:24:06:02,57153,31.7656,0.9999   0.0048732    0.004909   -0.011986,0.55167     0.56918     -1.3708,0.00093126   0.0045319 -0.00067568,-0.011353   0.0047493   -0.012741,-0.10858     0.09845      9.7656,0  0  0,0  0  0,0  0  0,213,-36,
13:24:06:36,57154,31.7656,0.9999   0.0049462   0.0048445   -0.011986,0.56012     0.56189     -1.3708,0.0022469   0.0027962 -0.00089216,-0.005394    0.001502   0.0050049,-0.10132    0.097107      9.7813,0  0  0,0  0  0,0  0  0,213,-36,
13:24:06:70,57155,31.7656,0.9999   0.0049328   0.0048501   -0.011937,0.5586     0.56248     -1.3652,0.0022011     0.00284  -0.0010729,-0.0028706    0.005661  -0.0074196,-0.098877     0.10089      9.7734,0  0  0,0  0  0,0  0  0,213,-36,
13:24:07:04,57156,31.7344,0.9999   0.0048888   0.0048833   -0.011943,0.55351     0.56624     -1.3659,0.0029716   0.0017729   -0.001174,-0.0089874    0.008316  -0.0016079,-0.10565     0.10266      9.7813,0  0  0,0  0  0,0  0  0,213,-36,
13:24:07:38,57157,31.7344,0.99991   0.0048142   0.0049532   -0.011881,0.54491      0.5741     -1.3587,-0.00033998   0.0051155 -0.00050783,-0.013641   0.0017614   -0.010902,-0.11169    0.094116      9.7656,0  0  0,0  0  0,0  0  0,213,-36,
13:24:07:72,57158,31.7344,0.99991   0.0048003   0.0049569   -0.011847,0.54333     0.57449     -1.3549,0.0044899  0.00040746  -0.0011234,-0.010201  0.00060034  -0.0011578,-0.10797    0.093384      9.7813,0  0  0,0  0  0,0  0  0,213,-36,
13:24:08:06,57159,31.75,0.99991   0.0047285   0.0050028   -0.011752,0.53509      0.5796      -1.344,1.2159e-05   0.0052338 -0.00056887,0.0020981  0.00086451   -0.004406,-0.096985    0.092041      9.7734,0  0  0,0  0  0,0  0  0,213,-37,
13:24:08:40,57160,31.75,0.99991   0.0047955   0.0049836   -0.011791,0.54277     0.57751     -1.3485,0.0040283   0.0014658 -0.00075388,-0.0044746    0.006855  -0.0090561,-0.10291    0.099548      9.7734,0  0  0,0  0  0,0  0  0,213,-36,
13:24:08:74,57161,31.75,0.99991   0.0048425   0.0049696   -0.011793,0.54818     0.57597     -1.3487,0.0024567   0.0026245 -0.00097609,-0.0042839   0.0023689  -0.0017805,-0.10254    0.095886      9.7813,0  0  0,0  0  0,0  0  0,213,-37,
13:24:09:08,57162,31.7656,0.9999   0.0049089   0.0048962   -0.011977,0.55578     0.56775     -1.3697,0.0054932   0.0013132    -0.00138,-0.0073433  -0.0064011  -0.0064049,-0.10382    0.088623      9.7734,0  0  0,0  0  0,0  0  0,213,-36,
13:24:09:42,57163,31.7656,0.9999   0.0049299   0.0048555   -0.011996,0.55823     0.56314      -1.372,-0.0015087   0.0054817  8.2493e-05,-0.0019169  -0.0071373  -0.0066833,-0.097961    0.087708      9.7734,0  0  0,0  0  0,0  0  0,213,-37,
13:24:09:76,57164,31.7656,0.9999   0.0048925    0.004899   -0.012138,0.55381     0.56814     -1.3882,0.0020485   0.0030193 -0.00069332,-0.0083008  -0.0014458   0.0033379,-0.10522    0.092957      9.7813,0  0  0,0  0  0,0  0  0,213,-36,
13:24:10:10,57165,31.7656,0.9999   0.0048485   0.0049515   -0.012177,0.54867     0.57412     -1.3927,0.00060749   0.0049629 -0.00076914,-0.015167    0.008667  -0.0057907,-0.11346     0.10181      9.7734,0  0  0,0  0  0,0  0  0,213,-37,
13:24:10:44,57166,31.7656,0.9999   0.0047903   0.0049748   -0.012248,0.54193     0.57674     -1.4008,0.0039139    0.001627  -0.0012388,-0.0017157  -0.0025883     -0.0084,-0.099854    0.090027      9.7734,0  0  0,0  0  0,0  0  0,213,-36,
13:24:10:78,57167,31.7656,0.9999   0.0047416    0.005029   -0.012275,0.53625      0.5829     -1.4039,-0.00063515   0.0058022 -0.00020659,-0.0076561   0.0023785   0.0068245,-0.10748    0.093567      9.7891,0  0  0,0  0  0,0  0  0,213,-36,
13:24:11:12,57168,31.7656,0.9999   0.0046838   0.0050566   -0.012253,0.5296     0.58597     -1.4015,0.0033073   0.0023556  -0.0011444,-0.0075226   0.0034714  -0.0042152,-0.10748    0.093811      9.7734,0  0  0,0  0  0,0  0  0,213,-36,
13:24:11:46,57169,31.7656,0.9999   0.0047013   0.0050392   -0.012314,0.53159     0.58404     -1.4084,0.00021183   0.0050278 -0.00032783,-0.0056419   0.0036297  0.00033379,-0.10559    0.094055      9.7813,0  0  0,0  0  0,0  0  0,213,-36,
13:24:11:80,57170,31.7656,0.9999   0.0047895   0.0049693   -0.012306,0.54181     0.57614     -1.4075,0.0037308    0.001297  -0.0011311,-0.015144  0.00062847   -0.001173,-0.11328    0.092896      9.7813,0  0  0,0  0  0,0  0  0,213,-37,
13:24:12:14,57171,31.7656,0.9999   0.0048779   0.0048669   -0.012375,0.55204     0.56457     -1.4154,0.0032177   0.0018883 -0.00037789,-0.019913     0.00383   -0.001049,-0.11621    0.097717      9.7813,0  0  0,0  0  0,0  0  0,213,-36,
13:24:12:48,57172,31.7656,0.9999    0.004884   0.0048631   -0.012319,0.55277     0.56412      -1.409,0.0030499   0.0025387 -0.00050116,-0.0093155  -0.0081863   0.0024223,-0.10535    0.086121      9.7813,0  0  0,0  0  0,0  0  0,213,-36,
13:24:12:82,57173,31.7813,0.9999   0.0049031   0.0048237   -0.012346,0.55501     0.55965     -1.4121,0.00099182    0.004158  -0.0010204,-0.0024567  -0.0098953   0.0084305,-0.0979    0.084778      9.7891,0  0  0,0  0  0,0  0  0,213,-36,
13:24:13:16,57174,31.7813,0.9999   0.0048497   0.0048341    -0.01213,0.549     0.56064     -1.3874,0.0024471   0.0039978 -0.00080633,-0.013046   0.0011826   -0.003046,-0.10876    0.094604      9.7734,0  0  0,0  0  0,0  0  0,213,-36,
13:24:13:50,57175,31.7813,0.99991    0.004787   0.0048907   -0.011961,0.54182     0.56695     -1.3681,-0.00031829   0.0051994 -0.00041723,-0.011475   0.0093842   -0.011566,-0.10852     0.10126      9.7656,0  0  0,0  0  0,0  0  0,213,-36,
13:24:13:84,57176,31.7656,0.99991   0.0046664   0.0049772    -0.01187,0.52794     0.57665     -1.3576,0.0027714   0.0030651 -0.00080442,-0.0098267  -0.0032024  -0.0015001,-0.10809    0.086792      9.7813,0  0  0,0  0  0,0  0  0,213,-36,
13:24:14:18,57177,31.7656,0.99991   0.0046737   0.0049504    -0.01184,0.52884     0.57357     -1.3542,0.0018635   0.0044289  -0.0006938,-0.0081406   0.0032978  -0.0045166,-0.10614    0.093323      9.7734,0  0  0,0  0  0,0  0  0,213,-36,
13:24:14:52,57178,31.7656,0.99991   0.0046862   0.0049439   -0.011865,0.53026     0.57286     -1.3571,0.00079441   0.0044937  -0.0004375,-0.0025883   0.0026875  -0.0073738,-0.10046    0.092957      9.7734,0  0  0,0  0  0,0  0  0,213,-37,
13:24:14:86,57179,31.7656,0.99991   0.0047911   0.0048402   -0.011893,0.54241     0.56113     -1.3602,0.0031128   0.0017586 -0.00084496,-0.0073814   -0.007019  0.00072193,-0.10284     0.08551      9.7813,0  0  0,0  0  0,0  0  0,213,-36,
13:24:15:20,57180,31.7656,0.99991   0.0048225   0.0047846    -0.01193,0.54606     0.55483     -1.3645,-0.00078201   0.0057182 -0.00035644,-0.017303 -0.00098419   0.0058937,-0.11224    0.091614      9.7891,0  0  0,0  0  0,0  0  0,213,-37,
13:24:15:54,57181,31.7656,0.99991    0.004892   0.0046958   -0.011753,0.55424     0.54464     -1.3442,0.0023365   0.0030117 -0.00068378,-0.010971   0.0076256    0.005455,-0.10413     0.10211      9.7813,0  0  0,0  0  0,0  0  0,213,-36,
13:24:15:88,57182,31.7656,0.99991   0.0048941   0.0046752   -0.011689,0.55454     0.54226     -1.3369,0.0010185   0.0042725 -0.00064182,-0.015007   -0.012665  -0.0024052,-0.1073    0.081543      9.7734,0  0  0,0  0  0,0  0  0,213,-36,
13:24:16:22,57183,31.7656,0.99991   0.0049008   0.0046659   -0.011594,0.55537     0.54114      -1.326,0.003067   0.0025043  -0.0012617,-0.0066414    0.014267   -0.016602,-0.09906     0.10889      9.7656,0  0  0,0  0  0,0  0  0,213,-36,
13:24:16:56,57184,31.7656,0.99991    0.004781   0.0047633   -0.011545,0.54154     0.55212     -1.3204,-0.00050831   0.0053062  -0.0001173,-0.015808  0.00044966 -0.00026131,-0.11023    0.092285      9.7813,0  0  0,0  0  0,0  0  0,213,-36,
13:24:16:90,57185,31.75,0.99991   0.0047193    0.004803   -0.011515,0.53444     0.55657      -1.317,0.003828   0.0015211  -0.0011635,-0.016357    0.005455   0.0041008,-0.11133    0.096558      9.7813,0  0  0,0  0  0,0  0  0,213,-36,
13:24:17:24,57186,31.75,0.99991   0.0046726     0.00484   -0.011422,0.52909      0.5607     -1.3064,-0.00068855   0.0053711  0.00025773,-0.0083923    0.020477   -0.013123,-0.10461     0.11023      9.7656,0  0  0,0  0  0,0  0  0,213,-36,
13:24:17:58,57187,31.75,0.99991   0.0046724   0.0048359   -0.011395,0.52909     0.56022     -1.3032,0.0045357   0.0011692 -0.00095272,-0.011116  -0.0022697   0.0026131,-0.10651    0.088074      9.7813,0  0  0,0  0  0,0  0  0,213,-36,
13:24:17:92,57188,31.7656,0.99991   0.0047052   0.0048276   -0.011404,0.53285     0.55931     -1.3043,0.00053644   0.0046539 -0.00063944,-0.0079117  -0.0068092  -0.0028305,-0.10333    0.083801      9.7734,0  0  0,0  0  0,0  0  0,213,-35,
13:24:18:26,57189,31.7656,0.99991   0.0047938   0.0047671   -0.011351,0.54311     0.55246     -1.2982,0.0048981   0.0021362  -0.0012312,-0.0044212    0.010963   -0.010681,-0.098755     0.10376      9.7656,0  0  0,0  0  0,0  0  0,213,-36,
13:24:18:60,57190,31.7656,0.99991   0.0048683    0.004713   -0.011413,0.55169     0.54639     -1.3052,-0.00045967   0.0055046  -0.0007844,-0.017212  -0.0031204  -0.0053101,-0.11053    0.090393      9.7734,0  0  0,0  0  0,0  0  0,213,-36,
13:24:18:94,57191,31.75,0.99991   0.0049219   0.0046367   -0.011523,0.55787     0.53778     -1.3179,0.0045815   0.0011444 -0.00090075,-0.015503     0.00144   0.0027447,-0.10712    0.096619      9.7813,0  0  0,0  0  0,0  0  0,213,-36,
13:24:19:28,57192,31.75,0.99991   0.0048906   0.0046525   -0.011459,0.55429     0.53952     -1.3106,-0.000947   0.0052338 -0.00023985,-0.012833    0.010406  -0.0062675,-0.10529     0.10443      9.7734,0  0  0,0  0  0,0  0  0,213,-36,
13:24:19:62,57193,31.75,0.99991   0.0048676   0.0046739   -0.011396,0.55167     0.54191     -1.3033,0.0041389   0.0012712 -0.00059891,-0.0091705  -0.0054016  -0.0028896,-0.10132    0.088745      9.7734,0  0  0,0  0  0,0  0  0,213,-36,
13:24:19:96,57194,31.7656,0.99991   0.0048039   0.0047191    -0.01141,0.54431     0.54701     -1.3049,-0.0004344   0.0056038  0.00020885,-0.022125   0.0088577  -0.0023403,-0.11584     0.10101      9.7734,0  0  0,0  0  0,0  0  0,213,-36,
13:24:20:30,57195,31.7656,0.99991   0.0047208   0.0047954   -0.011515,0.53463      0.5557     -1.3169,0.0028229   0.0032368 -0.00064278,0.00071239   0.0097275   -0.011307,-0.094238     0.10101      9.7656,0  0  0,0  0  0,0  0  0,213,-36,
13:24:20:64,57196,31.75,0.99991    0.004712    0.004799   -0.011517,0.5336     0.55611     -1.3172,-0.00018835   0.0048523 -0.00014639,-0.018631  -0.0043488   0.0016851,-0.11359    0.086121      9.7813,0  0  0,0  0  0,0  0  0,213,-37,
13:24:20:98,57197,31.75,0.99991   0.0046798   0.0048233   -0.011514,0.52989     0.55885     -1.3169,0.0034657   0.0025158  -0.0010281,-0.010475   0.0030041   -0.011108,-0.10571    0.093262      9.7656,0  0  0,0  0  0,0  0  0,213,-36,
13:24:21:32,57198,31.75,0.99991    0.004778   0.0047222   -0.011539,0.54126     0.54741     -1.3197,0.0034428    0.002327  -0.0012646,-0.0072174   0.0047607   -0.011391,-0.10052    0.097046      9.7656,0  0  0,0  0  0,0  0  0,213,-36,
13:24:21:66,57199,31.75,0.99991   0.0048299   0.0046569   -0.011577,0.54727        0.54     -1.3241,0.0018578   0.0033493 -0.00072432,-0.0095825  -0.0030632   0.0092239,-0.10175     0.09021      9.7891,0  0  0,0  0  0,0  0  0,213,-37,
13:24:22:00,57200,31.75,0.99991   0.0048366   0.0046433   -0.011602,0.54804     0.53848     -1.3269,0.0020866   0.0032921  -0.0011473,-0.0075378   0.0028229  -0.0033646,-0.099487    0.096191      9.7734,0  0  0,0  0  0,0  0  0,213,-36,
13:24:22:34,57201,31.75,0.99991   0.0047745   0.0046819   -0.011587,0.54088     0.54281     -1.3253,0.002243   0.0029888  -0.0004077,-0.01506   0.0089569  -0.0041695,-0.10785     0.10095      9.7734,0  0  0,0  0  0,0  0  0,213,-36,
13:24:22:68,57202,31.7656,0.99991   0.0047845   0.0046669   -0.011551,0.54207     0.54108     -1.3212,0.0031891   0.0024738 -0.00076342,-0.012123 -0.00045443  9.5367e-07,-0.10437    0.091919      9.7813,0  0  0,0  0  0,0  0  0,213,-37,
13:24:23:02,57203,31.7656,0.99991   0.0046549   0.0047539   -0.011508,0.52713     0.55086     -1.3162,0.0012798   0.0036945 -0.00095415,-0.011276   -0.000319  -0.0052795,-0.10529    0.089294      9.7734,0  0  0,0  0  0,0  0  0,213,-36,
13:24:23:36,57204,31.7656,0.99991   0.0046359   0.0047439   -0.011471,0.52499     0.54967      -1.312,0.0011711   0.0036983 -0.00050068,-0.0021915  -0.0022106  -0.0066528,-0.095886    0.087219      9.7734,0  0  0,0  0  0,0  0  0,213,-36,
13:24:23:70,57205,31.75,0.99991   0.0045843   0.0047775    -0.01145,0.51903     0.55344     -1.3096,0.0016251   0.0037918  -0.0005393,-0.0097198  -0.0001328   -0.003849,-0.10419    0.088196      9.7734,0  0  0,0  0  0,0  0  0,213,-37,
13:24:24:04,57206,31.75,0.99991   0.0046107    0.004744   -0.011458,0.52211     0.54963     -1.3106,0.0019484   0.0024261  -0.0011787,-0.011139  -0.0056534   0.0026836,-0.10474    0.083252      9.7813,0  0  0,0  0  0,0  0  0,213,-36,
13:24:24:38,57207,31.75,0.99991   0.0046019   0.0047584   -0.011486,0.52106     0.55129     -1.3138,0.0011225   0.0041237 -0.00067234,-0.011711    0.013748  0.00045395,-0.1062     0.10236      9.7813,0  0  0,0  0  0,0  0  0,213,-36,
13:24:24:72,57208,31.75,0.99991   0.0047125   0.0046783   -0.011501,0.53383     0.54226     -1.3154,0.0036926    0.002737  -0.0007906,-0.018768    0.014076   -0.004303,-0.11151     0.10492      9.7734,0  0  0,0  0  0,0  0  0,213,-36,
13:24:25:06,57209,31.75,0.99991   0.0047236   0.0046868   -0.011501,0.53509     0.54325     -1.3155,0.0012131   0.0042839 -0.00092888,-0.0096588  -0.0026131  -0.0075188,-0.10236    0.088379      9.7734,0  0  0,0  0  0,0  0  0,213,-36,
13:24:25:40,57210,31.75,0.99991   0.0047664   0.0046541    -0.01151,0.54004     0.53957     -1.3165,0.0040817   0.0024166  -0.0011415,-0.0073357   0.0095139  -0.0043983,-0.099487     0.10168      9.7734,0  0  0,0  0  0,0  0  0,213,-36,
13:24:25:74,57211,31.75,0.99991   0.0047285   0.0046793    -0.01148,0.53567     0.54239      -1.313,-0.00097084   0.0055809  8.7738e-05,-0.018021   0.0039024   0.0027866,-0.1109    0.094666      9.7813,0  0  0,0  0  0,0  0  0,213,-36,
13:24:26:08,57212,31.75,0.99991   0.0046498   0.0047622   -0.011402,0.52659     0.55174     -1.3041,-0.0011244    0.006321  0.00029349,-0.0091934  -0.0029049 -0.00070572,-0.10358    0.086487      9.7813,0  0  0,0  0  0,0  0  0,213,-36,
13:24:26:42,57213,31.75,0.99991   0.0045672   0.0048375   -0.011357,0.51706     0.56025      -1.299,-0.0014791   0.0054321 -0.00064898,-0.0062294    0.011948   -0.006485,-0.10223     0.09967      9.7734,0  0  0,0  0  0,0  0  0,213,-36,
13:24:26:76,57214,31.75,0.99991   0.0045972   0.0047971   -0.011404,0.52052     0.55568     -1.3044,0.0047264  0.00054359  -0.0012779,-0.0087433   0.0090866  -0.0029144,-0.10345    0.098022      9.7734,0  0  0,0  0  0,0  0  0,213,-36,
13:24:27:10,57215,31.75,0.99991    0.004549   0.0048346   -0.011333,0.51498     0.55988     -1.2962,0.0009532   0.0035515    -0.00105,-0.0070343   0.0069199  0.00071144,-0.10278    0.094604      9.7813,0  0  0,0  0  0,0  0  0,213,-36,
13:24:27:44,57216,31.75,0.99992   0.0045645   0.0048372   -0.011209,0.51682     0.56013     -1.2819,0.0040092   0.0012941  -0.0012321,-0.015083    0.015434  -0.0082703,-0.11072     0.10345      9.7734,0  0  0,0  0  0,0  0  0,213,-36,
13:24:27:78,57217,31.7656,0.99992   0.0046351   0.0047907   -0.011169,0.525     0.55487     -1.2774,-0.0012951   0.0057182  -0.0003345,-0.0065575  -0.0047226   0.0010653,-0.10138    0.084473      9.7813,0  0  0,0  0  0,0  0  0,213,-36,
13:24:28:12,57218,31.7656,0.99992   0.0047316   0.0047271   -0.011145,0.53615     0.54769     -1.2746,0.0046387    0.001318  -0.0012856,-0.0073814  -0.0019436   0.0017509,-0.10065    0.089722      9.7813,0  0  0,0  0  0,0  0  0,213,-36,
13:24:28:46,57219,31.7656,0.99991   0.0047493   0.0047134   -0.011197,0.53817     0.54618     -1.2806,0.00059509    0.005024 -0.00031805,-0.010239    0.009903   -0.016525,-0.1037     0.10126      9.7656,0  0  0,0  0  0,0  0  0,213,-37,
13:24:28:80,57220,31.75,0.99991   0.0047023   0.0047505   -0.011272,0.53269      0.5504     -1.2892,0.0036907   0.0016279 -0.00058365,-0.012825  -0.0023499  -0.0077744,-0.10645    0.088379      9.7734,0  0  0,0  0  0,0  0  0,213,-36,
13:24:29:14,57221,31.75,0.99991   0.0046612   0.0048132   -0.011304,0.52789     0.55756     -1.2928,-0.00041723   0.0055504 -0.00064898,-0.008934   0.0074921 -0.00076294,-0.10443    0.097168      9.7813,0  0  0,0  0  0,0  0  0,213,-36,
13:24:29:48,57222,31.75,0.99991    0.004584   0.0049036   -0.011369,0.51888     0.56785     -1.3003,0.0028   0.0034752 -0.00089502,-0.004776    0.011497  -0.0068665,-0.10187    0.099976      9.7734,0  0  0,0  0  0,0  0  0,213,-36,
13:24:29:82,57223,31.7656,0.99991   0.0045523   0.0049466   -0.011348,0.5152     0.57272     -1.2979,-0.00015795   0.0053635 -0.00066042,-0.01519   0.0051727  -0.0061226,-0.11316    0.092529      9.7734,0  0  0,0  0  0,0  0  0,213,-36,
13:24:30:16,57224,31.7656,0.99991   0.0045343   0.0049865   -0.011328,0.5131     0.57726     -1.2956,0.0033646   0.0020905 -0.00091505,-0.0012169   0.0066299  -0.0050354,-0.099731    0.094299      9.7734,0  0  0,0  0  0,0  0  0,213,-36,
13:24:30:50,57225,31.7656,0.99991   0.0045876   0.0049555   -0.011313,0.51926     0.57376     -1.2939,0.0023403   0.0032196 -0.00093365,-0.0062523    0.012306   0.0015736,-0.10443     0.10089      9.7813,0  0  0,0  0  0,0  0  0,213,-36,
13:24:30:84,57226,31.7656,0.99991   0.0046728   0.0048596   -0.011313,0.52915     0.56289     -1.2939,0.0010328   0.0038166 -0.00033665,-0.014496  -0.0041313  -0.0034428,-0.11047    0.085754      9.7734,0  0  0,0  0  0,0  0  0,213,-36,
13:24:31:18,57227,31.7656,0.99991   0.0047443   0.0048074   -0.011368,0.53738     0.55703     -1.3002,0.00069857   0.0043983  -0.0010214,-0.014366   0.0078888  -0.0087662,-0.10962    0.099121      9.7734,0  0  0,0  0  0,0  0  0,213,-36,
13:24:31:52,57228,31.7656,0.99991   0.0047109   0.0048385   -0.011354,0.53352     0.56054     -1.2985,0.0027351   0.0020142  -0.0015917,-0.0079803   0.0046768  -0.0040207,-0.10358    0.095642      9.7734,0  0  0,0  0  0,0  0  0,213,-36,
13:24:31:86,57229,31.7656,0.99991   0.0047554   0.0047913   -0.011399,0.53866     0.55521     -1.3037,0.0029163   0.0020771 -0.00042987,-0.011322    0.001255   0.0034504,-0.10602    0.093079      9.7813,0  0  0,0  0  0,0  0  0,213,-36,
13:24:32:20,57230,31.7656,0.99991   0.0047004   0.0048695    -0.01137,0.53227     0.56409     -1.3003,0.0024719   0.0027313 -0.00066757,-0.0042152    0.013039  -0.0042801,-0.10065     0.10382      9.7734,0  0  0,0  0  0,0  0  0,213,-36,
13:24:32:54,57231,31.7656,0.99991   0.0046725    0.004935   -0.011289,0.52904     0.57152      -1.291,0.0014467   0.0047569 -0.00048041,-0.0030918  0.00040865  -0.0027103,-0.10077    0.090576      9.7734,0  0  0,0  0  0,0  0  0,213,-36,
13:24:32:88,57232,31.7656,0.99992   0.0045688   0.0050467    -0.01113,0.51709     0.58409     -1.2728,0.0017042   0.0035801 -0.00044203,0.0036659   0.0024929  -0.0096664,-0.096008    0.090759      9.7734,0  0  0,0  0  0,0  0  0,213,-36,
13:24:33:22,57233,31.7656,0.99992   0.0045868   0.0050449    -0.01109,0.51919     0.58389     -1.2682,0.0026493   0.0030861  -0.0010748,-0.0067863   0.0026207   0.0035477,-0.10651    0.091187      9.7813,0  0  0,0  0  0,0  0  0,213,-36,
13:24:33:56,57234,31.75,0.99992   0.0045887   0.0050597   -0.011086,0.51939     0.58558     -1.2678,0.00090456   0.0041389 -0.00078249,-0.0051384    0.010857  -0.0072174,-0.10535    0.099243      9.7734,0  0  0,0  0  0,0  0  0,213,-36,
13:24:33:90,57235,31.75,0.99991   0.0046999   0.0049805   -0.011173,0.53218      0.5767     -1.2777,0.0026417   0.0041161 -0.00052261,-0.0051155   0.0082703  -0.0086441,-0.1037    0.098999      9.7734,0  0  0,0  0  0,0  0  0,213,-36,
13:24:34:24,57236,31.75,0.99991   0.0047268   0.0049698   -0.011238,0.53524     0.57555     -1.2851,0.0001533   0.0050735 -0.00066137,-0.0091629   -0.001936   0.0028229,-0.10754    0.089111      9.7813,0  0  0,0  0  0,0  0  0,213,-36,
13:24:34:58,57237,31.75,0.99991    0.004816   0.0049235    -0.01133,0.54547     0.57041     -1.2957,0.0037022   0.0023804  -0.0015841,-0.0023537  -0.0058517  -0.0098953,-0.099365     0.08728      9.7734,0  0  0,0  0  0,0  0  0,213,-36,
13:24:34:92,57238,31.75,0.99991   0.0047844   0.0049595   -0.011364,0.54178      0.5745     -1.2996,-0.00024652   0.0045319 -0.00036359,-0.0080109    0.013786  -0.0094757,-0.10638     0.10577      9.7734,0  0  0,0  0  0,0  0  0,213,-36,
13:24:35:26,57239,31.75,0.99991   0.0047706    0.004975   -0.011376,0.54017     0.57627      -1.301,0.0019665   0.0038166 -0.00024652,-0.0079575   -0.010612   0.0033112,-0.10614    0.081482      9.7813,0  0  0,0  0  0,0  0  0,213,-37,
13:24:35:60,57240,31.75,0.99991   0.0046613   0.0050673   -0.011419,0.5275     0.58673     -1.3059,-0.00097132   0.0059242  0.00069618,0.010979   0.0026894  -0.0024738,-0.089417    0.092712      9.7734,0  0  0,0  0  0,0  0  0,213,-36,
13:24:35:94,57241,31.75,0.99991   0.0046309   0.0051263   -0.011457,0.52392     0.59346     -1.3102,0.0036526   0.0018053  -0.0010529,-0.0053291   0.0066261   -0.007988,-0.10651    0.096069      9.7734,0  0  0,0  0  0,0  0  0,213,-36,
13:24:36:28,57242,31.75,0.99991   0.0045847   0.0051863   -0.011535,0.5185     0.60032     -1.3192,0.00088406   0.0038223 -0.00035286,-0.0080795    0.003746    0.011192,-0.11078    0.092102      9.7891,0  0  0,0  0  0,0  0  0,213,-36,
13:24:36:62,57243,31.7656,0.99991   0.0045744   0.0052277   -0.011479,0.5173     0.60503     -1.3127,0.0043831   0.0011234  -0.0011425,8.0407e-05    0.010979   -0.010872,-0.10309    0.099426      9.7656,0  0  0,0  0  0,0  0  0,213,-37,
13:24:36:96,57244,31.7656,0.99991   0.0046194   0.0051993   -0.011487,0.52249     0.60183     -1.3136,-0.00075483   0.0061226  -4.065e-05,-0.0015106    0.008667   -0.016205,-0.10449    0.097412      9.7656,0  0  0,0  0  0,0  0  0,213,-36,
13:24:37:30,57245,31.7656,0.99991   0.0047403   0.0050932   -0.011497,0.53648     0.58984     -1.3147,0.0043678   0.0010586 -0.00076675,-0.0092773  -0.0030422   0.0065536,-0.10974    0.088623      9.7891,0  0  0,0  0  0,0  0  0,213,-36,
13:24:37:64,57246,31.75,0.99991   0.0048066   0.0050413   -0.011475,0.54415     0.58397     -1.3122,-0.0016003   0.0058823 -0.00043416,-0.00070524 -9.3102e-05  -0.0080948,-0.10052    0.092346      9.7734,0  0  0,0  0  0,0  0  0,213,-36,
13:24:37:98,57247,31.75,0.99991   0.0048526   0.0050177   -0.011503,0.54944     0.58134     -1.3154,0.004528  0.00099277  -0.0009551,-0.0069962   0.0095596   -0.010422,-0.10608     0.10333      9.7656,0  0  0,0  0  0,0  0  0,213,-37,
13:24:38:32,57248,31.75,0.99991   0.0048404   0.0050304   -0.011612,0.54796     0.58284     -1.3279,-0.001236   0.0057564 -0.00054502,-0.0045967   -0.010139   0.0005188,-0.10406    0.083008      9.7813,0  0  0,0  0  0,0  0  0,213,-36,
13:24:38:66,57249,31.7656,0.99991   0.0047847   0.0050904   -0.011573,0.54152     0.58962     -1.3235,-0.0017796   0.0061378  0.00014186,-0.0030289    0.010071   -0.010712,-0.10406     0.10199      9.7656,0  0  0,0  0  0,0  0  0,213,-37,
13:24:39:00,57250,31.7656,0.99991   0.0047623   0.0051378   -0.011545,0.53891     0.59501     -1.3202,1.5914e-05   0.0051346 -0.00035906,0.0023022  -0.0025024  -0.0014029,-0.099365    0.089355      9.7813,0  0  0,0  0  0,0  0  0,213,-36,
13:24:39:34,57251,31.7656,0.99991   0.0046986   0.0052235   -0.011583,0.53147     0.60477     -1.3245,0.003643   0.0020065    -0.00103,-0.00052023  -0.0053673   0.0075836,-0.10358    0.085571      9.7891,0  0  0,0  0  0,0  0  0,213,-37,
13:24:39:68,57252,31.75,0.99991   0.0047068   0.0052229   -0.011608,0.5324     0.60472     -1.3274,0.00029731   0.0054665 -0.00052118,-0.0030956    0.006546    -0.00387,-0.10663    0.097168      9.7734,0  0  0,0  0  0,0  0  0,213,-36,
13:24:40:02,57253,31.75,0.99991   0.0047258   0.0052098    -0.01166,0.53456     0.60327     -1.3334,0.0026493   0.0027599 -0.00082779,-0.0037823    0.012344  -0.0039482,-0.10693     0.10358      9.7734,0  0  0,0  0  0,0  0  0,213,-36,
13:24:40:36,57254,31.75,0.99991   0.0048161   0.0051752   -0.011706,0.54493     0.59945     -1.3386,0.00076342   0.0049744 -0.00061464,-0.001339  -0.0078049   0.0032291,-0.10364    0.085144      9.7813,0  0  0,0  0  0,0  0  0,213,-37,
13:24:40:70,57255,31.7656,0.99991   0.0048524   0.0051583   -0.011715,0.54911     0.59756     -1.3396,0.0029831   0.0028038  -0.0010386,-0.0039215   0.0019207   -0.010239,-0.10577    0.095581      9.7656,0  0  0,0  0  0,0  0  0,213,-36,
13:24:41:04,57256,31.7656,0.99991   0.0048846   0.0051316   -0.011781,0.55279     0.59459     -1.3472,0.0013638   0.0034199  -0.0012093,-0.0028839 -0.00014019  -0.0010433,-0.10437    0.094116      9.7813,0  0  0,0  0  0,0  0  0,213,-37,
13:24:41:38,57257,31.7656,0.99991   0.0048825   0.0051506   -0.011801,0.55251     0.59678     -1.3495,0.0019255   0.0042343 -0.00074911,-0.0044136   0.0012312   5.722e-05,-0.10638    0.095459      9.7813,0  0  0,0  0  0,0  0  0,213,-36,
13:24:41:72,57258,31.75,0.9999   0.0048824   0.0051576   -0.011818,0.55249     0.59759     -1.3515,0.0019016   0.0038948  -0.0013514,0.0011768   0.0089111  -0.0039291,-0.10101     0.10321      9.7734,0  0  0,0  0  0,0  0  0,213,-37,
13:24:42:06,57259,31.75,0.9999   0.0047696   0.0052734   -0.011838,0.53939     0.61072     -1.3538,0.0019436    0.002779 -0.00083017,0.0014362   0.0059357  -0.0029354,-0.10284    0.098022      9.7734,0  0  0,0  0  0,0  0  0,213,-36,
13:24:42:40,57260,31.7344,0.99991   0.0047615   0.0052667   -0.011776,0.53851      0.6099     -1.3466,0.0023994   0.0024891  -0.0013609,-0.0020008   0.0017014   -0.010498,-0.10596    0.093567      9.7656,0  0  0,0  0  0,0  0  0,213,-36,
13:24:42:74,57261,31.7344,0.99991    0.004713   0.0053203   -0.011445,0.53309      0.6158     -1.3087,0.00045824   0.0044823 -0.00075769,-0.0079575   0.0006752  -0.0061607,-0.1131    0.091309      9.7734,0  0  0,0  0  0,0  0  0,213,-36,
13:24:43:08,57262,31.7344,0.99991   0.0047885   0.0052576   -0.011313,0.54189     0.60864     -1.2935,0.0025463    0.002943  -0.0011616,-0.0028534   0.0032597  -0.0025692,-0.10675    0.095764      9.7734,0  0  0,0  0  0,0  0  0,213,-36,
13:24:43:42,57263,31.7344,0.99991   0.0048483   0.0052106   -0.011188,0.54888     0.60327     -1.2792,0.0024109   0.0024147 -0.00049543,0.0023556  -0.0045052  -0.0024052,-0.1004    0.089294      9.7734,0  0  0,0  0  0,0  0  0,213,-37,
13:24:43:76,57264,31.7344,0.99991   0.0048845   0.0051967   -0.011295,0.55299     0.60178     -1.2914,0.0040321   0.0021248  -0.0015564,-0.0033379   0.0041313  -0.0022697,-0.10602    0.098633      9.7734,0  0  0,0  0  0,0  0  0,213,-36,
13:24:44:10,57265,31.7344,0.99991   0.0048837    0.005205   -0.011462,0.55278     0.60282     -1.3106,-2.6047e-05   0.0051537  -0.0010681,0.0049019     0.00247  -0.0099258,-0.098083     0.09668      9.7656,0  0  0,0  0  0,0  0  0,213,-36,
13:24:44:44,57266,31.75,0.99991   0.0048848   0.0052351   -0.011555,0.55281     0.60632     -1.3212,0.0037994   0.0017881  -0.0018301,-0.0039635  -0.0042114  -0.0022736,-0.10718     0.09021      9.7734,0  0  0,0  0  0,0  0  0,213,-36,
13:24:44:78,57267,31.75,0.99991   0.0047922   0.0053416   -0.011565,0.54206      0.6184     -1.3224,-0.0011921    0.005558 -0.00048137,0.0052414  -0.0015221  -0.0040436,-0.10046     0.09082      9.7734,0  0  0,0  0  0,0  0  0,213,-37,
13:24:45:12,57268,31.75,0.99991   0.0047464   0.0054105   -0.011691,0.53664     0.62631     -1.3368,0.0043831   0.0012913 -0.00063705,0.00024068    0.010864   -0.008255,-0.10663     0.10266      9.7734,0  0  0,0  0  0,0  0  0,213,-36,
13:24:45:46,57269,31.75,0.99991   0.0046766   0.0054623   -0.011717,0.52856     0.63217     -1.3398,-7.5698e-06   0.0043488 -0.00085545,0.0017271 -0.00098419  -0.0046921,-0.1062     0.08905      9.7734,0  0  0,0  0  0,0  0  0,213,-36,
13:24:45:80,57270,31.75,0.99991   0.0047329   0.0054234   -0.011751,0.53504      0.6278     -1.3437,0.0031204   0.0024509  -0.0012178,0.0051346   0.0035744  -0.0039139,-0.10199    0.095093      9.7734,0  0  0,0  0  0,0  0  0,213,-36,
13:24:46:14,57271,31.75,0.9999    0.004753   0.0054063   -0.011835,0.53731     0.62592     -1.3533,-0.00084686   0.0056915  5.1737e-05,0.0063286    0.012161   -0.011314,-0.10089     0.10364      9.7656,0  0  0,0  0  0,0  0  0,213,-36,
13:24:46:48,57272,31.7344,0.9999   0.0047944   0.0053709    -0.01199,0.54201       0.622     -1.3711,0.0040817   0.0015688   -0.001482,-0.00068951  -0.0090027  -0.0035114,-0.10645    0.083679      9.7734,0  0  0,0  0  0,0  0  0,213,-36,
13:24:46:82,57273,31.7344,0.9999    0.004848   0.0053292   -0.012063,0.54816     0.61734     -1.3794,-0.0016088   0.0063286 -0.00042915,0.0022717   0.0029583   0.0064468,-0.10352    0.096313      9.7891,0  0  0,0  0  0,0  0  0,213,-36,
13:24:47:16,57274,31.7344,0.9999   0.0048405   0.0053371   -0.012193,0.5472      0.6183     -1.3943,0.003355   0.0020065 -0.00069141,-0.0028458   0.0052681  -0.0057068,-0.10828    0.098694      9.7734,0  0  0,0  0  0,0  0  0,213,-36,
13:24:47:50,57275,31.75,0.9999   0.0048267   0.0053659   -0.012184,0.54559     0.62158     -1.3933,-0.000772   0.0056114 -0.00014174,-0.0030575   -0.005867  -0.0071487,-0.10913    0.086853      9.7734,0  0  0,0  0  0,0  0  0,213,-36,
13:24:47:84,57276,31.75,0.9999   0.0047084   0.0054769   -0.012187,0.53188     0.63414     -1.3937,0.0018663    0.003046  -0.0010357,0.0076675   0.0036755   0.0069122,-0.10071    0.094727      9.7891,0  0  0,0  0  0,0  0  0,213,-36,
13:24:48:18,57277,31.75,0.9999   0.0046294   0.0055494   -0.012143,0.52276      0.6423     -1.3886,0.00016701   0.0045357 -0.00037718,0.0073853   0.0030117   -0.013428,-0.10229    0.092163      9.7656,0  0  0,0  0  0,0  0  0,213,-37,
13:24:48:52,57278,31.75,0.9999   0.0046235   0.0055676   -0.012107,0.52207     0.64436     -1.3845,0.0034695   0.0026989 -0.00059843,0.0099945  -0.0025139  -0.0066643,-0.099792    0.086975      9.7734,0  0  0,0  0  0,0  0  0,213,-36,
13:24:48:86,57279,31.75,0.9999   0.0046247   0.0055771   -0.012098,0.52221     0.64545     -1.3834,0.00015402    0.004467   -0.000669,0.0034447   0.0023251  -0.0071754,-0.10681    0.091309      9.7734,0  0  0,0  0  0,0  0  0,213,-36,
13:24:49:20,57280,31.75,0.9999   0.0046112    0.005569   -0.012074,0.52069     0.64449     -1.3808,-0.00042462    0.004509 -2.9504e-05,0.0021744   0.0074997   0.0016365,-0.10815    0.096252      9.7813,0  0  0,0  0  0,0  0  0,213,-36,
13:24:49:54,57281,31.75,0.9999   0.0047777   0.0054554   -0.012131,0.53989     0.63173     -1.3872,0.0015354   0.0042763 -0.00080013,-0.00013411  -0.0085983   0.0028133,-0.10785    0.083557      9.7813,0  0  0,0  0  0,0  0  0,213,-37,
13:24:49:88,57282,31.75,0.9999   0.0048121   0.0054427   -0.012181,0.54381     0.63035     -1.3929,0.0023441   0.0022507 -0.00082684,0.0055656   0.0045815   -0.010612,-0.10193    0.097473      9.7656,0  0  0,0  0  0,0  0  0,213,-36,
13:24:50:22,57283,31.75,0.9999   0.0048784    0.005389     -0.0122,0.55147      0.6243     -1.3951,-0.00060129   0.0059624 -0.00093508,-7.5758e-05  -0.0026398   0.0029888,-0.10687    0.091309      9.7813,0  0  0,0  0  0,0  0  0,213,-36,
13:24:50:56,57284,31.75,0.9999   0.0048666   0.0054095   -0.012273,0.55005     0.62668     -1.4035,0.0010252    0.004097 -0.00065231,0.005455   0.0039139   -0.008194,-0.10156    0.097778      9.7734,0  0  0,0  0  0,0  0  0,213,-37,
13:24:50:90,57285,31.75,0.9999   0.0048592   0.0054254   -0.012251,0.54919     0.62847      -1.401,0.0021057   0.0024986  -0.0013552,0.0020161  0.00063181   -0.017303,-0.10498    0.094299      9.7656,0  0  0,0  0  0,0  0  0,213,-37,
13:24:51:24,57286,31.75,0.9999   0.0047528   0.0055141   -0.012128,0.53696     0.63843     -1.3869,-0.00012898   0.0057335 -0.00034165,0.0069237   0.0047379   -0.010841,-0.10223    0.096252      9.7656,0  0  0,0  0  0,0  0  0,213,-37,
13:24:51:58,57287,31.75,0.9999   0.0046817   0.0055793   -0.012134,0.52871      0.6458     -1.3876,0.0035992    0.002039  -0.0012541,0.0033779   0.0038166   0.0033855,-0.10681     0.09436      9.7813,0  0  0,0  0  0,0  0  0,213,-37,
13:24:51:92,57288,31.75,0.9999   0.0046571   0.0056301   -0.012115,0.52584     0.65157     -1.3853,-9.1076e-05    0.004921  0.00018501,-0.002079   0.0075722  0.00053787,-0.11365    0.097107      9.7813,0  0  0,0  0  0,0  0  0,213,-36,
13:24:52:26,57289,31.75,0.9999   0.0047202   0.0055786   -0.012132,0.53313     0.64578     -1.3873,0.0039291   0.0012255 -0.00063324,0.0060921  -0.0022411   -0.011467,-0.1037    0.088989      9.7656,0  0  0,0  0  0,0  0  0,213,-36,
13:24:52:60,57290,31.7344,0.9999   0.0047715   0.0055479   -0.012278,0.53895     0.64241      -1.404,0.0020123   0.0032101 -0.00090599,0.0046959   0.0022049      -0.007,-0.10492    0.094299      9.7734,0  0  0,0  0  0,0  0  0,213,-36,
13:24:52:94,57291,31.7344,0.9999   0.0048748   0.0054638   -0.012288,0.5509     0.63292     -1.4052,0.0046196   0.0009532  -0.0014963,-0.0026741  0.00074434  0.00075722,-0.11047    0.094971      9.7813,0  0  0,0  0  0,0  0  0,213,-37,
13:24:53:28,57292,31.7656,0.9999   0.0048888   0.0054655   -0.012293,0.55251     0.63314     -1.4057,-0.00052357   0.0057793 -0.00044322,0.012962   0.0094299   -0.015656,-0.095398      0.1037      9.7656,0  0  0,0  0  0,0  0  0,213,-36,
13:24:53:62,57293,31.7656,0.9999   0.0049223   0.0054335   -0.012119,0.5565     0.62942     -1.3857,0.0035725   0.0019951  -0.0012188,-0.00084877    -0.00494   0.0015297,-0.10803     0.09021      9.7813,0  0  0,0  0  0,0  0  0,213,-36,
13:24:53:96,57294,31.7656,0.9999   0.0048913   0.0054949   -0.011839,0.55303     0.63626     -1.3537,-0.00088644   0.0052605 -0.00043058,0.0019894 -0.00054693  -0.0034313,-0.10675    0.093628      9.7734,0  0  0,0  0  0,0  0  0,213,-36,
13:24:54:30,57295,31.7344,0.9999   0.0047893   0.0055588   -0.011746,0.54132     0.64339      -1.343,0.0041313   0.0011272 -0.00063324,0.0052376   0.0035286  -0.0061264,-0.10437    0.096252      9.7734,0  0  0,0  0  0,0  0  0,213,-36,
13:24:54:64,57296,31.7344,0.99991   0.0047422   0.0056318   -0.011634,0.5359     0.65163     -1.3302,-0.00096989   0.0053864 -4.9472e-06,0.0032845 -0.00096273  -0.0040855,-0.10803    0.090271      9.7734,0  0  0,0  0  0,0  0  0,213,-36,
13:24:54:98,57297,31.7344,0.99991   0.0047589   0.0056366   -0.011596,0.53783     0.65219     -1.3258,0.0038757   0.0017729 -0.00053549,0.0092697   0.0076599  -0.0033226,-0.10205    0.099854      9.7734,0  0  0,0  0  0,0  0  0,213,-36,
13:24:55:32,57298,31.75,0.9999   0.0047795    0.005625   -0.011654,0.54017     0.65092     -1.3324,-0.0010452    0.005661  -0.0003891,0.0031261   0.0003562  -0.0082703,-0.10809    0.092285      9.7734,0  0  0,0  0  0,0  0  0,213,-36,
13:24:55:66,57299,31.75,0.99991   0.0048271   0.0055958   -0.011615,0.54568     0.64761      -1.328,0.0042992   0.0013866  -0.0012712,-0.0021648   0.0051193   0.0057793,-0.11267    0.098511      9.7813,0  0  0,0  0  0,0  0  0,213,-36,
13:24:56:00,57300,31.75,0.99991   0.0048783   0.0055396   -0.011597,0.55164     0.64123     -1.3259,0.002285   0.0029621 -0.00092173,0.0030689   0.0026665  -0.0071869,-0.10632    0.096863      9.7734,0  0  0,0  0  0,0  0  0,213,-36,
13:24:56:34,57301,31.7344,0.9999   0.0049406   0.0054931   -0.011704,0.55877     0.63604     -1.3381,0.0036716   0.0028515  -0.0010519,0.0062256   0.0028534  -0.0085907,-0.10223    0.098511      9.7734,0  0  0,0  0  0,0  0  0,213,-36,
13:24:56:68,57302,31.7344,0.9999   0.0049103   0.0055294   -0.011703,0.55525     0.64016     -1.3381,-0.00071812   0.0052643  9.8705e-05,0.0083466  -0.0068474  -0.0035534,-0.10089     0.08783      9.7734,0  0  0,0  0  0,0  0  0,213,-36,
13:24:57:03,57303,31.7344,0.9999   0.0048733   0.0055934   -0.011683,0.55094     0.64743     -1.3358,0.0031834   0.0031662  -0.0011673,-0.00062084  -0.0032692  -0.0025578,-0.11096    0.090881      9.7734,0  0  0,0  0  0,0  0  0,213,-36,
13:24:57:37,57304,31.7344,0.9999   0.0047882   0.0056892   -0.011702,0.54104     0.65831     -1.3379,-0.00093699   0.0059166 -0.00067377,0.0054131  -0.0012045   -0.013718,-0.10699    0.090881      9.7656,0  0  0,0  0  0,0  0  0,213,-36,
13:24:57:71,57305,31.7344,0.9999   0.0047583    0.005711   -0.011708,0.53759     0.66077     -1.3386,0.0044975   0.0012875 -0.00084972,0.0037823  -0.0020065  -0.0079041,-0.10864    0.090027      9.7734,0  0  0,0  0  0,0  0  0,213,-36,
13:24:58:05,57306,31.7344,0.9999   0.0047706   0.0057016   -0.011748,0.53899     0.65973     -1.3431,0.0012512   0.0040092 -0.00043988,0.0016251   -0.002779  -0.0006361,-0.11096    0.089233      9.7813,0  0  0,0  0  0,0  0  0,213,-37,
13:24:58:39,57307,31.7344,0.9999   0.0047907   0.0056925   -0.011784,0.54128     0.65874     -1.3473,0.0043602   0.0010586  -0.0015011,-0.00051928    0.011772   -0.010559,-0.11285     0.10431      9.7656,0  0  0,0  0  0,0  0  0,213,-36,
13:24:58:73,57308,31.7344,0.9999    0.004826   0.0056391   -0.011784,0.54539     0.65267     -1.3473,-0.0011082   0.0060616 -0.00035644,0.010468   0.0081863    -0.01165,-0.10126     0.10114      9.7656,0  0  0,0  0  0,0  0  0,213,-36,
13:24:59:07,57309,31.7344,0.9999   0.0049185   0.0055679   -0.011887,0.55602     0.64468     -1.3591,0.0041313   0.0014553  -0.0015955,0.012665  -0.0073929  -0.0014582,-0.096985    0.088013      9.7813,0  0  0,0  0  0,0  0  0,213,-36,
13:24:59:41,57310,31.75,0.9999    0.004904   0.0055862   -0.011964,0.55428      0.6468      -1.368,-0.0012665   0.0060463 -0.00070715,0.0032711   -0.004055  -0.0042839,-0.10724    0.090332      9.7734,0  0  0,0  0  0,0  0  0,213,-37,
13:24:59:75,57311,31.75,0.9999   0.0048789     0.00562   -0.011931,0.55139     0.65062     -1.3641,0.0044327   0.0019445  -0.0011082,0.0049591   0.0075989  -0.0085754,-0.10602     0.10199      9.7734,0  0  0,0  0  0,0  0  0,213,-36,
13:25:00:08,57312,31.75,0.9999   0.0048281   0.0056919   -0.011924,0.54547     0.65879     -1.3633,-0.00014627   0.0050735 -0.00026774,0.0021477  -0.0060158  0.00050735,-0.11029    0.086975      9.7813,0  0  0,0  0  0,0  0  0,213,-36,
13:25:00:42,57313,31.7344,0.9999    0.004739    0.005808   -0.012026,0.53504     0.67203      -1.375,-0.00077868    0.005455  -0.0004766,0.002861   0.0039673   -0.012062,-0.112    0.095032      9.7656,0  0  0,0  0  0,0  0  0,213,-36,
13:25:00:76,57314,31.7344,0.9999   0.0047427   0.0058179   -0.012185,0.53534     0.67325     -1.3932,0.00034332   0.0051689 -0.00093508,0.0097504   0.0059776  -0.0044365,-0.10541    0.097412      9.7734,0  0  0,0  0  0,0  0  0,213,-37,
13:25:01:10,57315,31.7344,0.9999   0.0047181   0.0058475   -0.012271,0.53242     0.67666      -1.403,0.002779   0.0025616  -0.0013266,0.016754  -0.0042763  -0.0084534,-0.09845    0.087036      9.7734,0  0  0,0  0  0,0  0  0,213,-37,
13:25:01:44,57316,31.7344,0.99989   0.0047883   0.0057754   -0.012424,0.54046     0.66857     -1.4206,0.0016699   0.0043564 -0.00028825,0.0094833    0.010666  -0.0092392,-0.10486     0.10303      9.7734,0  0  0,0  0  0,0  0  0,213,-36,
13:25:01:78,57317,31.7344,0.99989   0.0048673   0.0057248   -0.012556,0.5495     0.66296     -1.4357,0.0024834    0.003088  -0.0010252,0.012688  -0.0063553   -0.003952,-0.10022    0.087769      9.7734,0  0  0,0  0  0,0  0  0,213,-36,
13:25:02:12,57318,31.7344,0.99989   0.0049861   0.0056487   -0.012606,0.56319     0.65444     -1.4414,0.001771   0.0036964 -0.00059652,0.0056915   -0.004715   -0.010056,-0.10577    0.091492      9.7656,0  0  0,0  0  0,0  0  0,213,-37,
13:25:02:46,57319,31.7344,0.99989   0.0050043   0.0056464   -0.012685,0.56523     0.65425     -1.4504,0.0012426   0.0042076  -0.0011091,0.006897    0.011993  -0.0057869,-0.1051     0.10852      9.7734,0  0  0,0  0  0,0  0  0,213,-36,
13:25:02:81,57320,31.7344,0.99989   0.0049822   0.0056656   -0.012674,0.56267     0.65641     -1.4492,0.0024452   0.0027065 -0.00042272,0.0023766  -0.0084305  -0.0032482,-0.10931    0.087708      9.7734,0  0  0,0  0  0,0  0  0,213,-36,
13:25:03:15,57321,31.7344,0.99989   0.0049498   0.0057212    -0.01269,0.55887     0.66274      -1.451,-0.00066328   0.0050659 -0.00041151,0.0091095   0.0027027  -0.0046616,-0.10419    0.098022      9.7734,0  0  0,0  0  0,0  0  0,213,-36,
13:25:03:49,57322,31.7344,0.99989   0.0049303   0.0057492   -0.012667,0.55661     0.66591     -1.4484,0.0026398   0.0027351  -0.0010462,0.0073967   0.0060158   -0.014053,-0.1062     0.10114      9.7656,0  0  0,0  0  0,0  0  0,213,-37,
13:25:03:83,57323,31.7344,0.99989   0.0048402   0.0058399   -0.012619,0.54618     0.67615     -1.4429,-0.0012217    0.005928 -0.00015831,0.013321 -0.00094509  -0.0033894,-0.10229    0.092285      9.7734,0  0  0,0  0  0,0  0  0,213,-36,
13:25:04:17,57324,31.7188,0.99989   0.0048957   0.0058286   -0.012496,0.55264     0.67486     -1.4287,0.0043869   0.0012941   -0.001092,0.0046196  -0.0016098  -0.0044098,-0.11029    0.093079      9.7734,0  0  0,0  0  0,0  0  0,213,-36,
13:25:04:51,57325,31.7188,0.99989   0.0049065   0.0058299   -0.012434,0.55393     0.67499     -1.4217,-0.00077677    0.005497 -0.00023198,0.011467  0.00086832  -0.0088654,-0.10388    0.095398      9.7734,0  0  0,0  0  0,0  0  0,213,-36,
13:25:04:85,57326,31.7188,0.99989   0.0050134   0.0057453   -0.012457,0.56628     0.66546     -1.4242,0.0040436   0.0016088 -0.00067234,0.0072823  -0.0062294   -0.016815,-0.10577    0.090698      9.7656,0  0  0,0  0  0,0  0  0,213,-36,
13:25:05:19,57327,31.7344,0.99989   0.0050727   0.0057017   -0.012493,0.57311     0.66058     -1.4284,0.0017853   0.0039444  -0.0011702,0.0091629  -0.0033455    -0.01046,-0.10345    0.094604      9.7656,0  0  0,0  0  0,0  0  0,213,-36,
13:25:05:53,57328,31.7344,0.99989   0.0050361   0.0057279   -0.012556,0.56884     0.66356     -1.4356,0.0048485  0.00091553  -0.0013371,0.0028915   0.0051346   -0.012894,-0.11011     0.10248      9.7656,0  0  0,0  0  0,0  0  0,213,-37,
13:25:05:87,57329,31.7344,0.99989    0.005004     0.00574   -0.012538,0.56516     0.66489     -1.4335,-0.00094843   0.0054665 -0.00013828,0.0071259  -0.0069504  -0.0064545,-0.10632    0.089355      9.7734,0  0  0,0  0  0,0  0  0,213,-37,
13:25:06:21,57330,31.7344,0.99989   0.0049329   0.0058062   -0.012445,0.55698     0.67232     -1.4229,0.0053062   0.0017538  -0.0016327,0.011208  -0.0048714 -0.00043869,-0.10327     0.09082      9.7813,0  0  0,0  0  0,0  0  0,213,-36,
13:25:06:55,57331,31.7344,0.99989   0.0048935   0.0058468   -0.012381,0.55244     0.67689     -1.4156,-0.00061703   0.0054092 -0.00042152,0.008049   0.0025558   -0.012054,-0.1076     0.09668      9.7656,0  0  0,0  0  0,0  0  0,213,-36,
13:25:06:89,57332,31.7344,0.99989   0.0048875   0.0058581   -0.012346,0.55176     0.67815     -1.4115,0.0045128   0.0017748  -0.0011568,0.015129   0.0042915  -0.0063057,-0.10046     0.09906      9.7734,0  0  0,0  0  0,0  0  0,213,-36,
13:25:07:23,57333,31.7344,0.99989   0.0049181   0.0058284   -0.012337,0.55533     0.67478     -1.4105,0.0018167    0.003418   -0.001668,0.0060844  -0.0014153  -0.0090332,-0.10895    0.093445      9.7734,0  0  0,0  0  0,0  0  0,213,-36,
13:25:07:57,57334,31.7344,0.99989   0.0050067    0.005753   -0.012449,0.5655     0.66633     -1.4233,0.00028419   0.0041199 -0.00048971,0.002449  -0.0040054  -0.0057564,-0.11121    0.092407      9.7734,0  0  0,0  0  0,0  0  0,213,-36,
13:25:07:91,57335,31.7344,0.99989   0.0050865   0.0057004   -0.012573,0.57464     0.66049     -1.4375,0.00069571    0.004818 -0.00052738,0.013016  -0.0057831  -0.0053635,-0.09967    0.092468      9.7734,0  0  0,0  0  0,0  0  0,213,-36,
13:25:08:25,57336,31.75,0.99989   0.0050727   0.0057237    -0.01265,0.57298     0.66318     -1.4463,0.003706   0.0027447 -0.00071907,0.0063896   -0.011131  0.00036144,-0.10645    0.087036      9.7813,0  0  0,0  0  0,0  0  0,213,-36,
13:25:08:58,57337,31.75,0.99989   0.0051091   0.0057037   -0.012727,0.57713     0.66098     -1.4552,0.0019426   0.0030613  -0.0010252,0.010757  0.00088263   -0.014252,-0.10187    0.099548      9.7656,0  0  0,0  0  0,0  0  0,213,-36,
13:25:08:92,57338,31.75,0.99989   0.0050271   0.0058176   -0.012692,0.56759      0.6739     -1.4511,0.0013838   0.0039368 -0.00028372,0.0082321     0.00317  -0.0076599,-0.10681     0.10016      9.7734,0  0  0,0  0  0,0  0  0,213,-36,
13:25:09:26,57339,31.75,0.99989   0.0050063   0.0058282   -0.012569,0.56527     0.67502      -1.437,0.0018787   0.0035992  -0.0017557,0.013916  -0.0066032   0.0045395,-0.1012    0.090271      9.7813,0  0  0,0  0  0,0  0  0,213,-36,
13:25:09:60,57340,31.75,0.99989   0.0048869   0.0059518   -0.012503,0.55146     0.68898     -1.4295,-4.1902e-05   0.0050735 -1.6391e-05,0.0064659   0.0056458  -0.0079269,-0.11133     0.09967      9.7734,0  0  0,0  0  0,0  0  0,213,-36,
13:25:09:94,57341,31.75,0.99989   0.0048785   0.0059645    -0.01261,0.5504     0.69047     -1.4418,0.0029793   0.0026226  -0.0009284,0.01017   0.0060616   -0.010323,-0.1076     0.10028      9.7656,0  0  0,0  0  0,0  0  0,213,-36,
13:25:10:28,57342,31.75,0.99989   0.0049081   0.0059467   -0.012667,0.55379     0.68851     -1.4482,0.00048447   0.0048599 -0.00065041,0.012138  -0.0051804   0.0025616,-0.10541    0.089539      9.7813,0  0  0,0  0  0,0  0  0,213,-36,
13:25:10:62,57343,31.75,0.99989   0.0050065   0.0058767   -0.012771,0.56508     0.68069     -1.4602,0.0030956   0.0019932  -0.0011482,0.011429   0.0042763   -0.018951,-0.10449     0.10095      9.7578,0  0  0,0  0  0,0  0  0,213,-36,
13:25:10:96,57344,31.75,0.99989   0.0050289   0.0058556   -0.012872,0.56762     0.67836     -1.4717,-0.0011549   0.0061302 -0.00042224,0.013527  -0.0014744    -0.01281,-0.10236    0.095337      9.7656,0  0  0,0  0  0,0  0  0,213,-37,
13:25:11:31,57345,31.7344,0.99989   0.0051575   0.0057631   -0.012918,0.58245     0.66798      -1.477,0.0051193   0.0019894  -0.0012541,0.0045662   -0.014877   0.0093689,-0.10901    0.085083      9.7891,0  0  0,0  0  0,0  0  0,213,-36,
13:25:11:65,57346,31.7344,0.99989   0.0051264   0.0057803   -0.012976,0.57883     0.66993     -1.4837,-0.0018063   0.0069466  2.0266e-06,0.011482 -0.00067663  -0.0074692,-0.10309    0.098022      9.7734,0  0  0,0  0  0,0  0  0,213,-37,
13:25:11:99,57347,31.7344,0.99989   0.0050888   0.0058231   -0.012968,0.57446     0.67478     -1.4827,0.002142   0.0034657  -0.0005393,0.0068932  -0.0054321    0.002739,-0.10815    0.092896      9.7813,0  0  0,0  0  0,0  0  0,213,-36,
13:25:12:33,57348,31.75,0.99989   0.0050092   0.0058918   -0.012997,0.56523     0.68255      -1.486,-0.0012426   0.0050774 -0.00040364,0.0093613    -0.01149  -0.0055466,-0.10693      0.0849      9.7734,0  0  0,0  0  0,0  0  0,213,-37,
13:25:12:67,57349,31.75,0.99989    0.004967   0.0059351   -0.013006,0.56032     0.68745     -1.4872,0.0041046   0.0014477  -0.0012569,0.020828   0.0065231    -0.01619,-0.096313     0.10278      9.7656,0  0  0,0  0  0,0  0  0,213,-36,
13:25:13:01,57350,31.75,0.99989   0.0049999   0.0059143   -0.012986,0.56412     0.68511     -1.4848,0.0013819   0.0040512  -0.0011301,0.012306 -0.00088739   0.0038357,-0.10474    0.095703      9.7813,0  0  0,0  0  0,0  0  0,213,-36,
13:25:13:35,57351,31.7344,0.99989   0.0050249   0.0059072   -0.012868,0.56709     0.68426     -1.4713,0.0043449   0.0022926   -0.001894,0.0076981   -0.006443 -0.00091267,-0.10883     0.09082      9.7813,0  0  0,0  0  0,0  0  0,213,-36,
13:25:13:69,57352,31.7344,0.99989   0.0050792   0.0058442   -0.012753,0.57348     0.67706     -1.4581,-0.00052738   0.0047798 -6.6459e-05,0.0086899   0.0090256   -0.013977,-0.10706     0.10675      9.7656,0  0  0,0  0  0,0  0  0,213,-36,
13:25:14:03,57353,31.75,0.99989   0.0050906   0.0058312   -0.012675,0.57485     0.67554     -1.4492,0.0036316   0.0019588  -0.0011854,0.0014849  -0.0095215  -0.0016327,-0.1134    0.088806      9.7813,0  0  0,0  0  0,0  0  0,213,-36,
13:25:14:37,57354,31.75,0.99989   0.0051362   0.0058003   -0.012632,0.58015     0.67204     -1.4442,0.0027981    0.003191  -0.0014505,0.0071449  -0.0047874   0.0085297,-0.10754    0.094604      9.7891,0  0  0,0  0  0,0  0  0,213,-37,
13:25:14:71,57355,31.75,0.99989   0.0051203   0.0058136   -0.012675,0.57828     0.67357     -1.4491,0.002943   0.0021267 -0.00086975,0.010307 -0.00063515   -0.008934,-0.10443    0.098389      9.7734,0  0  0,0  0  0,0  0  0,213,-35,
13:25:15:05,57356,31.75,0.99989   0.0050542   0.0058546   -0.012739,0.57061     0.67821     -1.4565,0.0009141   0.0041275  0.00015068,0.0052605  -0.0037041   0.0035763,-0.11053    0.093811      9.7813,0  0  0,0  0  0,0  0  0,213,-37,
13:25:15:39,57357,31.75,0.99989   0.0049517   0.0059461   -0.012703,0.55875     0.68852     -1.4524,0.00054026    0.004303 -0.00065422,0.007988 -0.00072002   0.0049858,-0.10968    0.094788      9.7813,0  0  0,0  0  0,0  0  0,213,-36,
13:25:15:73,57358,31.75,0.99989   0.0049711    0.005931   -0.012542,0.56111     0.68673     -1.4339,0.0017643   0.0039139  -0.0011349,0.011337   0.0014515  -0.0048027,-0.1059    0.097473      9.7734,0  0  0,0  0  0,0  0  0,213,-36,
13:25:16:07,57359,31.75,0.99989   0.0049324   0.0059712   -0.012479,0.55666     0.69124     -1.4268,0.0011024   0.0034008 -0.00079107,0.017685  0.00057411  -0.0027351,-0.10028    0.095947      9.7734,0  0  0,0  0  0,0  0  0,213,-36,
13:25:16:41,57360,31.75,0.99989   0.0050018   0.0059049   -0.012502,0.5647     0.68376     -1.4294,0.0012846   0.0035172 -0.00060654,0.013481   -0.012993  0.00049686,-0.10291    0.083679      9.7813,0  0  0,0  0  0,0  0  0,213,-36,
13:25:16:75,57361,31.75,0.99989    0.005039   0.0058439   -0.012467,0.56906     0.67681     -1.4253,0.0031128   0.0024986 -0.00076389,0.013191  -0.0010986  -0.0052261,-0.10217    0.096436      9.7734,0  0  0,0  0  0,0  0  0,213,-36,
13:25:17:08,57362,31.75,0.99989   0.0051292   0.0057411   -0.012482,0.57954     0.66516      -1.427,0.0017614   0.0029392 -0.00073528,0.004921  -0.0041885  -0.0070038,-0.1084    0.094788      9.7734,0  0  0,0  0  0,0  0  0,213,-36,
13:25:17:42,57363,31.75,0.99989   0.0051033   0.0057477   -0.012489,0.57656     0.66589     -1.4279,0.0010309   0.0043259 -0.00036049,0.014931  -0.0049858  -0.0060425,-0.098633    0.093689      9.7734,0  0  0,0  0  0,0  0  0,213,-36,
13:25:17:76,57364,31.75,0.99989   0.0050645   0.0057721   -0.012446,0.5721      0.6686     -1.4229,0.003027   0.0024529  -0.0013885,0.0091248  -0.0011969  0.00052547,-0.10486    0.096802      9.7813,0  0  0,0  0  0,0  0  0,213,-36,
13:25:18:10,57365,31.7344,0.99989   0.0049685   0.0058412   -0.012553,0.56093     0.67644     -1.4353,-0.00069237   0.0059319 -0.00022864,0.011047   0.0011835  -0.0017786,-0.10468    0.096924      9.7813,0  0  0,0  0  0,0  0  0,213,-36,
13:25:18:44,57366,31.7344,0.99989   0.0049353   0.0058711   -0.012661,0.55701     0.67988     -1.4476,0.003355   0.0022163  -0.0013647,0.018524   -0.010002  -0.0055237,-0.097107    0.085632      9.7734,0  0  0,0  0  0,0  0  0,213,-37,
13:25:18:78,57367,31.7344,0.99989   0.0048687   0.0059135   -0.012666,0.54931     0.68464     -1.4482,0.00042725   0.0045509 -0.00093365,0.012909   0.0028362  -0.0088577,-0.104    0.096741      9.7734,0  0  0,0  0  0,0  0  0,213,-37,
13:25:19:12,57368,31.75,0.99989   0.0048708   0.0059091   -0.012594,0.54961      0.6841       -1.44,0.0043564   0.0016317  -0.0013361,0.015251    0.001585  -0.0051041,-0.10132    0.096008      9.7734,0  0  0,0  0  0,0  0  0,213,-36,
13:25:19:46,57369,31.75,0.99989    0.004889   0.0058818   -0.012545,0.55177     0.68097     -1.4344,-0.00057268   0.0058327 -2.5988e-05,0.012436   0.0062065  8.8692e-05,-0.10419     0.10046      9.7813,0  0  0,0  0  0,0  0  0,213,-37,
13:25:19:81,57370,31.75,0.99989   0.0050103   0.0057616   -0.012558,0.56583     0.66738     -1.4358,0.0040665    0.001421   -0.001277,0.014961   0.0064888  -0.0040665,-0.098877     0.10364      9.7734,0  0  0,0  0  0,0  0  0,213,-36,
13:25:20:15,57371,31.75,0.99989   0.0050551   0.0057027   -0.012675,0.57097     0.66077     -1.4493,-0.0018473   0.0066833  4.7386e-05,0.0051994   0.0007925   0.0041847,-0.10797    0.098083      9.7813,0  0  0,0  0  0,0  0  0,213,-36,
13:25:20:49,57372,31.75,0.99989   0.0050854   0.0056764   -0.012799,0.5744     0.65787     -1.4635,0.004879   0.0013876  -0.0010128,0.0063286   -0.015152  -0.0029831,-0.10535    0.083313      9.7734,0  0  0,0  0  0,0  0  0,213,-37,
13:25:20:83,57373,31.75,0.99989   0.0050644   0.0057051    -0.01282,0.57194     0.66113     -1.4659,-0.0007453   0.0063171 -0.00097561,0.0029297   0.0011406  -0.0023174,-0.11017    0.098572      9.7734,0  0  0,0  0  0,0  0  0,213,-36,
13:25:21:17,57374,31.75,0.99989   0.0050084   0.0057192   -0.012854,0.56548     0.66269     -1.4698,0.0019836    0.003046  -0.0010557,0.0099335   0.0024147   -0.013618,-0.10303     0.09906      9.7656,0  0  0,0  0  0,0  0  0,213,-37,
13:25:21:51,57375,31.75,0.99989   0.0049521   0.0057645   -0.012891,0.55894     0.66782      -1.474,-0.00059938   0.0056877  -0.0006032,0.010902   -0.010124   0.0018291,-0.10309    0.085327      9.7813,0  0  0,0  0  0,0  0  0,213,-37,
13:25:21:85,57376,31.75,0.99989    0.004883    0.005797   -0.012899,0.55097     0.67145     -1.4749,0.0031395   0.0013752  -0.0013371,0.0048676   0.0056038  -0.0030441,-0.10962    0.099854      9.7734,0  0  0,0  0  0,0  0  0,213,-37,
13:25:22:19,57377,31.75,0.99989   0.0048667   0.0057546    -0.01293,0.54914     0.66658     -1.4785,-0.00073719   0.0056496 -0.00038123,0.0050545   -0.006031  -0.0070953,-0.1087    0.087524      9.7734,0  0  0,0  0  0,0  0  0,213,-36,
13:25:22:53,57378,31.75,0.99989   0.0049012   0.0057227   -0.012932,0.55314     0.66298     -1.4788,0.0029984   0.0021458  -0.0010357,0.0019798  -0.0072289   0.0048866,-0.1109    0.087402      9.7813,0  0  0,0  0  0,0  0  0,213,-36,
13:25:22:87,57379,31.75,0.99989   0.0049682   0.0056534    -0.01296,0.56089     0.65515      -1.482,0.00035024   0.0051498 -0.00050211,0.0048828   0.0040321  -0.0022659,-0.10718    0.099731      9.7734,0  0  0,0  0  0,0  0  0,213,-36,
13:25:23:21,57380,31.75,0.99989   0.0050059   0.0055843   -0.012836,0.5654     0.64722     -1.4678,0.0030422   0.0025368 -5.9962e-05,0.0013618  -0.0025921  -0.0089417,-0.10883    0.093994      9.7734,0  0  0,0  0  0,0  0  0,213,-36,
13:25:23:55,57381,31.75,0.99989   0.0050252   0.0055626   -0.012694,0.56774     0.64468     -1.4515,0.002821   0.0035915 -0.00092125,0.0012045  -0.0075912  -0.0047073,-0.10858    0.089417      9.7734,0  0  0,0  0  0,0  0  0,213,-37,
13:25:23:89,57382,31.75,0.99989   0.0049956   0.0055784   -0.012563,0.5644     0.64637     -1.4365,0.00024176   0.0047073 -0.00018919,0.0095673  -0.0028038  -0.0032635,-0.10077    0.093628      9.7734,0  0  0,0  0  0,0  0  0,213,-35,
13:25:24:23,57383,31.75,0.99989   0.0050136   0.0055572     -0.0125,0.56654     0.64393     -1.4293,0.0032768   0.0019836 -0.00051785,0.00035977  -0.0020638  -0.0002327,-0.10938    0.094788      9.7813,0  0  0,0  0  0,0  0  0,213,-37,
13:25:24:57,57384,31.75,0.9999    0.004901   0.0056427   -0.012424,0.55357     0.65352     -1.4206,-0.0011759   0.0056686 -0.00041485,0.0060463   0.0020409 -0.00052166,-0.10577    0.096375      9.7813,0  0  0,0  0  0,0  0  0,213,-37,
13:25:24:91,57385,31.75,0.9999   0.0048907   0.0056434   -0.012359,0.55242     0.65356     -1.4131,0.0026073   0.0027142 -0.00081205,0.0062294  -0.0043449  0.00040531,-0.10516     0.09021      9.7813,0  0  0,0  0  0,0  0  0,213,-36,
13:25:25:25,57386,31.75,0.99989   0.0048757   0.0056545   -0.012506,0.55059      0.6549     -1.4301,0.00048542   0.0045395 -0.00067329,0.0045013   0.0037136  -0.0070877,-0.10742    0.097595      9.7734,0  0  0,0  0  0,0  0  0,213,-36,
13:25:25:58,57387,31.75,0.99989   0.0049759   0.0055568     -0.0125,0.56223     0.64384     -1.4294,0.0028057   0.0025806 -0.00083828,0.0057373  -0.0089874 -0.00084114,-0.10382    0.087219      9.7813,0  0  0,0  0  0,0  0  0,213,-36,
13:25:25:92,57388,31.7344,0.99989   0.0050362   0.0055008   -0.012427,0.56925     0.63747      -1.421,0.00087976   0.0048447 -0.00088406,0.0047035  -0.0044899   0.0019836,-0.10413    0.092712      9.7813,0  0  0,0  0  0,0  0  0,213,-36,
13:25:26:26,57389,31.7344,0.9999   0.0051043   0.0054297   -0.012386,0.57718     0.62939     -1.4163,0.0039063   0.0013952 -0.00093317,0.001647  -0.0072441  -0.0033665,-0.10535    0.091492      9.7734,0  0  0,0  0  0,0  0  0,213,-36,
13:25:26:60,57390,31.7344,0.9999   0.0050956   0.0054031    -0.01237,0.57624     0.62632     -1.4144,-0.00055647   0.0050468  -0.0006609,0.00061321   -0.007576   0.0061607,-0.10632    0.090637      9.7891,0  0  0,0  0  0,0  0  0,213,-36,
13:25:26:94,57391,31.75,0.9999    0.005104   0.0053632   -0.012339,0.57727     0.62175     -1.4109,0.0033569   0.0023155 -0.00096846,-0.0055389   -0.003109   0.0036602,-0.11151    0.095459      9.7813,0  0  0,0  0  0,0  0  0,213,-36,
13:25:27:28,57392,31.75,0.9999    0.004987   0.0054503   -0.012287,0.56378     0.63153      -1.405,-0.000422    0.005352 -0.00027752,0.0075874   0.0052872   -0.012199,-0.1004     0.10138      9.7656,0  0  0,0  0  0,0  0  0,213,-36,
13:25:27:62,57393,31.75,0.9999   0.0049578   0.0054734   -0.012403,0.56033      0.6342     -1.4182,0.0044823   0.0016108  -0.0013723,0.002758  -0.0033321   0.0037003,-0.10529    0.092712      9.7813,0  0  0,0  0  0,0  0  0,213,-36,
13:25:27:96,57394,31.75,0.9999   0.0048914    0.005524   -0.012236,0.55275     0.63981     -1.3991,2.1696e-05   0.0048981 -0.00025821,-0.0021114   0.0010614  -0.0044327,-0.11145    0.095154      9.7734,0  0  0,0  0  0,0  0  0,213,-37,
13:25:28:31,57395,31.75,0.9999   0.0049426   0.0054601   -0.012269,0.55869     0.63258     -1.4029,0.00076389   0.0030041 -0.00092459,0.0013971    0.010834   -0.010582,-0.10669     0.10602      9.7656,0  0  0,0  0  0,0  0  0,213,-36,
13:25:28:65,57396,31.75,0.9999   0.0049379    0.005442   -0.012276,0.55817      0.6305     -1.4038,-0.00099945   0.0058403 -0.00013065,-0.0014095   -0.012642   0.0069199,-0.10901    0.082397      9.7891,0  0  0,0  0  0,0  0  0,213,-36,
13:25:28:99,57397,31.7656,0.99989   0.0049967    0.005373   -0.012612,0.56479     0.62287     -1.4422,0.0049019  0.00091553  -0.0012827,0.00079441  0.00081539   0.0048447,-0.10535    0.097595      9.7813,0  0  0,0  0  0,0  0  0,213,-37,
13:25:29:33,57398,31.7656,0.99989   0.0051026   0.0052667   -0.012777,0.57698     0.61094     -1.4611,0.0037594   0.0014629 -0.00063086,-0.00052261   0.0062447   -0.010071,-0.10468      0.1048      9.7656,0  0  0,0  0  0,0  0  0,213,-37,
13:25:29:67,57399,31.7656,0.99989   0.0050888   0.0052404   -0.012696,0.57549     0.60785     -1.4519,0.0038548     0.00105 -0.00089502,0.0052757   -0.011703   0.0077171,-0.098022    0.086975      9.7891,0  0  0,0  0  0,0  0  0,213,-37,
13:25:30:01,57400,31.75,0.99989   0.0050549   0.0052744    -0.01292,0.57142     0.61183     -1.4775,-0.00089979   0.0060272  0.00019228,-0.0052834   0.0036259    0.006031,-0.11011     0.10083      9.7891,0  0  0,0  0  0,0  0  0,213,-36,
13:25:30:35,57401,31.75,0.99989   0.0049864   0.0053297   -0.013109,0.56337     0.61817     -1.4992,0.00056124   0.0039253  -0.0004034,0.0013819   0.0021687   -0.011429,-0.10413    0.098145      9.7656,0  0  0,0  0  0,0  0  0,213,-37,
13:25:30:69,57402,31.75,0.99989   0.0049493   0.0053502   -0.013235,0.55901     0.62053     -1.5137,-0.00023878   0.0048256 -7.8559e-05,0.0044746  -0.0050621   0.0054817,-0.1015    0.090332      9.7813,0  0  0,0  0  0,0  0  0,213,-36,
13:25:31:03,57403,31.75,0.99988    0.004917    0.005376   -0.013368,0.55519     0.62352     -1.5289,0.0036335   0.0018005 -0.00081968,0.0024147   0.0048904   -0.015656,-0.10382    0.099731      9.7656,0  0  0,0  0  0,0  0  0,213,-36,
13:25:31:37,57404,31.75,0.99988   0.0049245   0.0053636   -0.013517,0.55598     0.62219      -1.546,4.2915e-05   0.0040245 -0.00067091,-0.00069284   0.0009284  -0.0070572,-0.10687    0.095581      9.7734,0  0  0,0  0  0,0  0  0,213,-36,
13:25:31:71,57405,31.75,0.99988   0.0049704   0.0053244   -0.013621,0.56122     0.61783     -1.5579,0.002964   0.0029335 -0.00041294,0.0054054    0.002882   -0.010925,-0.099976    0.098816      9.7656,0  0  0,0  0  0,0  0  0,213,-36,
13:25:32:05,57406,31.75,0.99988   0.0050867   0.0052221   -0.013786,0.57462     0.60638     -1.5768,0.00041318   0.0041199 -0.00066471,0.0019121   0.0056686  -0.0096741,-0.10168     0.10358      9.7734,0  0  0,0  0  0,0  0  0,213,-37,
13:25:32:39,57407,31.75,0.99988    0.005124   0.0051954   -0.013984,0.57881      0.6035     -1.5995,0.0022488   0.0032158 -0.00028586,-0.0049553  -0.0052376   -0.007019,-0.10773    0.093384      9.7734,0  0  0,0  0  0,0  0  0,213,-36,
13:25:32:73,57408,31.75,0.99987   0.0052002   0.0051382   -0.014056,0.58759     0.59711     -1.6077,-9.6262e-05   0.0042877   -0.000386,-0.0024681  -0.0089188   0.0030766,-0.10425    0.091187      9.7813,0  0  0,0  0  0,0  0  0,213,-36,
13:25:33:07,57409,31.7656,0.99987     0.00513   0.0051836   -0.014164,0.57941     0.60226     -1.6201,0.0012465   0.0038853 -0.00095797,-0.00094318   0.0021515    -0.01368,-0.1037     0.10083      9.7656,0  0  0,0  0  0,0  0  0,213,-36,
13:25:33:41,57410,31.7656,0.99987   0.0051065   0.0052098   -0.014181,0.57666     0.60524     -1.6221,0.0011749   0.0035458 -0.00048828,-0.0051613  -0.0064583  0.00010777,-0.10828    0.091797      9.7813,0  0  0,0  0  0,0  0  0,213,-35,
13:25:33:75,57411,31.7656,0.99987   0.0049822   0.0052838   -0.014187,0.5623     0.61351     -1.6227,0.00039411   0.0048599 -0.00038719,-0.010246   -0.010368   0.0073357,-0.11487    0.085266      9.7891,0  0  0,0  0  0,0  0  0,213,-36,
13:25:34:08,57412,31.75,0.99987   0.0048952   0.0053551   -0.014252,0.55217     0.62158     -1.6303,0.0046539   0.0019951 -0.00091314,0.011963    0.012009  -0.0089645,-0.094238     0.10681      9.7734,0  0  0,0  0  0,0  0  0,213,-36,
13:25:34:42,57413,31.75,0.99987   0.0048681   0.0054015   -0.014228,0.54901     0.62683     -1.6274,-0.00048208   0.0058517 -0.00073671,-0.0025043  -0.0014544   0.0038662,-0.10974     0.09198      9.7813,0  0  0,0  0  0,0  0  0,213,-36,
13:25:34:76,57414,31.75,0.99987   0.0049527   0.0053176   -0.014219,0.55884     0.61735     -1.6265,0.0032196   0.0025139  -0.0011339,0.00042534  -0.0058594  -0.0052757,-0.10461    0.089661      9.7734,0  0  0,0  0  0,0  0  0,213,-36,
13:25:35:10,57415,31.75,0.99987   0.0049521    0.005307   -0.014155,0.55883      0.6161     -1.6191,-0.00025773    0.005394 -0.00024629,-0.0010719   0.0095978  -0.0072327,-0.10663     0.10468      9.7734,0  0  0,0  0  0,0  0  0,213,-36,
13:25:35:44,57416,31.75,0.99987   0.0050198   0.0052258   -0.014171,0.56671     0.60692      -1.621,0.0029335   0.0024471  -0.0011234,-0.006115     -0.0168  -0.0042839,-0.10907    0.079834      9.7734,0  0  0,0  0  0,0  0  0,213,-37,
13:25:35:78,57417,31.75,0.99987   0.0050375   0.0052061   -0.014221,0.56874     0.60472     -1.6267,-0.00073624    0.005558 -0.00011772,-0.0024757   -0.010406   0.0046616,-0.10565    0.086426      9.7813,0  0  0,0  0  0,0  0  0,213,-37,
13:25:36:12,57418,31.75,0.99987   0.0050869   0.0051479   -0.014216,0.5745     0.59813     -1.6261,0.0019169   0.0037994 -0.00037193,0.0018845  -0.0026302   -0.014969,-0.10004    0.095337      9.7656,0  0  0,0  0  0,0  0  0,213,-36,
13:25:36:46,57419,31.75,0.99987   0.0050388   0.0051825   -0.014316,0.56887     0.60207     -1.6376,-0.0017872   0.0058746 -0.00029922,0.002964  -0.0044289  0.00039768,-0.099915    0.092407      9.7813,0  0  0,0  0  0,0  0  0,213,-36,
13:25:36:81,57420,31.7656,0.99987    0.004971   0.0052407    -0.01425,0.56105     0.60859     -1.6301,0.0044022  0.00071383  -0.0011654,-0.0060272  -0.0076332  -0.0012312,-0.10938    0.088196      9.7813,0  0  0,0  0  0,0  0  0,213,-36,
13:25:37:15,57421,31.7656,0.99988   0.0049288    0.005256   -0.013761,0.55648     0.61001     -1.5741,-0.00068188   0.0050049  -0.0004456,-0.0018749   0.0035267   -0.014244,-0.10608    0.098083      9.7656,0  0  0,0  0  0,0  0  0,213,-36,
13:25:37:49,57422,31.7656,0.99989   0.0049469   0.0052391   -0.013329,0.55885     0.60785     -1.5246,0.0038948   0.0011625 -0.00080013,0.0036144  -0.0057106  -0.0039978,-0.099731    0.089966      9.7734,0  0  0,0  0  0,0  0  0,213,-35,
13:25:37:83,57423,31.75,0.99989   0.0050235   0.0051908   -0.013217,0.56776     0.60238     -1.5116,0.00023317   0.0050774  -7.081e-05,-0.0084686   -0.012146   0.0056076,-0.11115    0.084473      9.7813,0  0  0,0  0  0,0  0  0,213,-36,
13:25:38:17,57424,31.75,0.99989   0.0050891   0.0051281   -0.013273,0.57534     0.59532     -1.5181,0.0047531   0.0011272  -0.0013838,-0.0056725   -0.010292  -0.0070648,-0.10669    0.088013      9.7734,0  0  0,0  0  0,0  0  0,213,-36,
13:25:38:51,57425,31.75,0.99988   0.0051267   0.0050901   -0.013355,0.57966     0.59107     -1.5274,0.0017595    0.003685  -0.0010042,-0.011856  0.00095129  -0.0018978,-0.11273    0.099548      9.7734,0  0  0,0  0  0,0  0  0,213,-36,
13:25:38:85,57426,31.75,0.99988   0.0051445    0.005046   -0.013573,0.58164     0.58617     -1.5524,0.0022831   0.0028191 -0.00053263,-0.0077934    -0.01915   0.0069046,-0.1073    0.080078      9.7891,0  0  0,0  0  0,0  0  0,213,-36,
13:25:39:19,57427,31.75,0.99988   0.0051652   0.0049918   -0.013517,0.58412     0.57997     -1.5461,-0.00074244   0.0052757 -0.00034761,-0.0020084    -0.00457  -0.0044594,-0.10101    0.094788      9.7734,0  0  0,0  0  0,0  0  0,213,-36,
13:25:39:53,57428,31.75,0.99988   0.0050816   0.0050647   -0.013526,0.57443     0.58819     -1.5471,0.0023937   0.0036411 -0.00060272,-0.011505  -0.0027199  -0.0040321,-0.11182    0.095032      9.7734,0  0  0,0  0  0,0  0  0,213,-36,
13:25:39:87,57429,31.75,0.99988    0.005064   0.0050684   -0.013576,0.57237     0.58862     -1.5529,0.00029922   0.0052338 -0.00050449,-0.0025883  -0.0026588  -0.0057907,-0.10309    0.094788      9.7734,0  0  0,0  0  0,0  0  0,213,-36,
13:25:40:21,57430,31.75,0.99988   0.0049799   0.0051445   -0.013496,0.56267     0.59716     -1.5437,0.0023289   0.0028076 -0.00060797,0.0011778   0.0038071  -0.0077286,-0.10071    0.099854      9.7734,0  0  0,0  0  0,0  0  0,213,-37,
13:25:40:55,57431,31.75,0.99988   0.0050131   0.0051163   -0.013566,0.56647     0.59401     -1.5517,0.00090599   0.0043983 -0.00029182,-0.0050278    -0.00774   0.0062561,-0.10638    0.088806      9.7891,0  0  0,0  0  0,0  0  0,213,-36,
13:25:40:89,57432,31.75,0.99988    0.005032   0.0050908    -0.01363,0.56864     0.59117     -1.5591,0.0028782   0.0026989  -0.0013561,-0.0061073  -0.0086899  -0.0056915,-0.10663    0.088257      9.7734,0  0  0,0  0  0,0  0  0,213,-36,
13:25:41:23,57433,31.75,0.99988   0.0050913   0.0050362   -0.013702,0.57548     0.58504     -1.5673,0.0010538   0.0044403   -0.000319,-0.0041885   0.0086975  -0.0063934,-0.10431     0.10669      9.7734,0  0  0,0  0  0,0  0  0,213,-36,
13:25:41:57,57434,31.75,0.99988   0.0051321   0.0050043   -0.013768,0.58016     0.58149     -1.5749,0.001049   0.0031242 -0.00091267,-0.0067101   -0.011574   0.0094986,-0.10571     0.08728      9.7891,0  0  0,0  0  0,0  0  0,213,-36,
13:25:41:91,57435,31.7656,0.99988   0.0052335   0.0048981   -0.013923,0.59187     0.56957     -1.5926,0.004818  0.00082302   -0.001441,-0.0077286   -0.005764   -0.000597,-0.10449    0.095337      9.7813,0  0  0,0  0  0,0  0  0,213,-36,
13:25:42:25,57436,31.7656,0.99988   0.0051775   0.0049344    -0.01397,0.58536     0.57367      -1.598,0.00093269   0.0041656 -0.00099468,-0.0038147   0.0081253    -0.01046,-0.10193     0.10773      9.7656,0  0  0,0  0  0,0  0  0,213,-37,
13:25:42:58,57437,31.7656,0.99988   0.0051577   0.0049336   -0.013975,0.5831     0.57354     -1.5986,0.0026512   0.0022736   -0.001049,-0.010635   -0.018356   0.0055046,-0.10797    0.080994      9.7813,0  0  0,0  0  0,0  0  0,213,-36,
13:25:42:92,57438,31.7656,0.99988    0.005034   0.0050332   -0.013848,0.56884     0.58469     -1.5841,0.00049973    0.004982 -0.00058222,0.0033951  -0.0021152   -0.014084,-0.096375    0.094788      9.7656,0  0  0,0  0  0,0  0  0,213,-36,
13:25:43:26,57439,31.7656,0.99988   0.0050173   0.0050282    -0.01389,0.5669     0.58412     -1.5889,0.0013275   0.0031853  -0.0005517,-0.0013552     0.01133  -0.0067444,-0.10126     0.10797      9.7734,0  0  0,0  0  0,0  0  0,213,-36,
13:25:43:60,57440,31.7656,0.99988     0.00497   0.0050655   -0.013911,0.56142     0.58833     -1.5913,0.0001874    0.004818 -0.00084209,-0.0061646  -0.0082855   0.0019913,-0.10651    0.087219      9.7813,0  0  0,0  0  0,0  0  0,213,-37,
13:25:43:94,57441,31.75,0.99988   0.0049938   0.0050315   -0.013874,0.56422     0.58445     -1.5871,0.0028515   0.0014391  -0.0009346,-0.0025482  -0.0059547     -0.0103,-0.10181    0.090271      9.7656,0  0  0,0  0  0,0  0  0,213,-37,
13:25:44:28,57442,31.75,0.99988   0.0051031   0.0049455   -0.013886,0.57688     0.57478     -1.5884,0.0015306   0.0039482 -0.00080347,-0.0039444  -0.0057411  -0.0043983,-0.10187    0.092529      9.7734,0  0  0,0  0  0,0  0  0,213,-36,
13:25:44:62,57443,31.75,0.99988   0.0051765   0.0048853   -0.013897,0.58537       0.568     -1.5897,0.0046196  7.1287e-05  -0.0009284,-0.010941   -0.014252 -0.00015354,-0.10718    0.085632      9.7813,0  0  0,0  0  0,0  0  0,213,-36,
13:25:44:96,57444,31.7344,0.99988   0.0052131     0.00485   -0.013894,0.58962     0.56401     -1.5894,-0.00063038   0.0050392 -0.00087023,-0.0042458  -0.0065575   -0.013588,-0.10034    0.093628      9.7656,0  0  0,0  0  0,0  0  0,213,-36,
13:25:45:31,57445,31.7344,0.99988   0.0052208   0.0048385   -0.013999,0.59047     0.56276     -1.6013,-0.0011845   0.0055084 -0.00037408,-0.011726  -0.0090332  -0.0012999,-0.10773    0.091125      9.7813,0  0  0,0  0  0,0  0  0,213,-36,
13:25:45:65,57446,31.7344,0.99988   0.0051534   0.0048895   -0.013988,0.58267      0.5685     -1.6001,-0.0010509   0.0053558 -0.00047183,-0.019409   -0.012657     0.01107,-0.11639    0.086121      9.7891,0  0  0,0  0  0,0  0  0,213,-36,
13:25:45:99,57447,31.7344,0.99988   0.0051252   0.0049196   -0.013938,0.57941     0.57187     -1.5944,0.0046349   0.0016518 -0.00038552,0.00018764    0.010414   -0.013931,-0.097412     0.10944      9.7656,0  0  0,0  0  0,0  0  0,213,-36,
13:25:46:33,57448,31.7344,0.99988   0.0050366   0.0049831     -0.0139,0.56919     0.57898       -1.59,-0.0012741   0.0055695  0.00031137,-0.010315  -0.0027504   0.0012703,-0.10925    0.093811      9.7813,0  0  0,0  0  0,0  0  0,213,-37,
13:25:46:67,57449,31.75,0.99988   0.0049872   0.0050135   -0.013858,0.5635     0.58237     -1.5853,0.00077105   0.0043144  0.00010931,-0.0071564  -0.0057907     0.00457,-0.10651    0.090149      9.7813,0  0  0,0  0  0,0  0  0,213,-36,
13:25:47:01,57450,31.75,0.99988   0.0050244   0.0049711   -0.013834,0.56784     0.57755     -1.5824,-0.00073767   0.0051994 -0.00052214,-0.0075989  -0.0045853  -0.0099945,-0.10614    0.091797      9.7656,0  0  0,0  0  0,0  0  0,213,-36,
13:25:47:35,57451,31.75,0.99988   0.0050595   0.0049197   -0.013789,0.57197     0.57169     -1.5774,0.0047264   0.0016861  -0.0012684,-0.0022297  -0.0066795   0.0058632,-0.099487    0.091248      9.7891,0  0  0,0  0  0,0  0  0,213,-36,
13:25:47:69,57452,31.75,0.99988   0.0051516   0.0048364    -0.01385,0.58263     0.56232     -1.5843,0.0010605   0.0050583  -0.0005784,-0.0087128   -0.013359   0.0014372,-0.10449    0.085815      9.7813,0  0  0,0  0  0,0  0  0,213,-36,
13:25:48:03,57453,31.75,0.99988   0.0051663   0.0047991    -0.01386,0.58436     0.55808     -1.5855,0.003849   0.0027676  -0.0013924,-0.01252   0.0050316  -0.0089645,-0.10773     0.10455      9.7734,0  0  0,0  0  0,0  0  0,213,-36,
13:25:48:37,57454,31.75,0.99988   0.0052075   0.0047554   -0.013717,0.58923     0.55306     -1.5691,0.00053406   0.0047073 -0.00036621,-0.01709   -0.014931   0.0026302,-0.11121    0.085083      9.7813,0  0  0,0  0  0,0  0  0,213,-36,
13:25:48:71,57455,31.7656,0.99988   0.0051445   0.0047995   -0.013608,0.582     0.55795     -1.5566,0.0011492   0.0042496  -0.0011845,-0.011925   -0.002821   0.0040741,-0.10718    0.096191      9.7813,0  0  0,0  0  0,0  0  0,213,-36,
13:25:49:05,57456,31.7656,0.99988   0.0050642   0.0048718   -0.013509,0.57275     0.56605     -1.5452,0.0016479   0.0031281 -0.00081158,-0.0013647   0.0033855    -0.01001,-0.097961     0.10101      9.7656,0  0  0,0  0  0,0  0  0,213,-36,
13:25:49:39,57457,31.7656,0.99988   0.0049818   0.0049549   -0.013461,0.5632     0.57542     -1.5398,0.0017805   0.0041199  -0.0012016,-0.01358  -0.0067024   0.0037498,-0.11169    0.089111      9.7813,0  0  0,0  0  0,0  0  0,213,-36,
13:25:49:73,57458,31.75,0.99988   0.0049499   0.0049747   -0.013488,0.5595     0.57765     -1.5429,0.00059032   0.0042648 -0.00057459,-0.0069351    0.001195    -0.01503,-0.10547    0.096252      9.7656,0  0  0,0  0  0,0  0  0,213,-36,
13:25:50:07,57459,31.75,0.99988   0.0049239   0.0049953   -0.013524,0.55647     0.57999      -1.547,0.0036736   0.0013571  -0.0013571,-0.00044918   0.0026436  -0.0050468,-0.099243    0.097778      9.7734,0  0  0,0  0  0,0  0  0,213,-36,
13:25:50:41,57460,31.75,0.99988   0.0050097   0.0049344   -0.013535,0.56639     0.57315     -1.5482,0.0032024   0.0026131 -0.00061846,-0.0096054 -0.00029373  -0.0031586,-0.1073    0.096252      9.7734,0  0  0,0  0  0,0  0  0,213,-36,
13:25:50:75,57461,31.7656,0.99988    0.005032    0.004937   -0.013587,0.56891     0.57352     -1.5542,0.0013533   0.0041008 -0.00088739,-0.0038357  -0.0019932  -0.0065346,-0.10168     0.09491      9.7734,0  0  0,0  0  0,0  0  0,213,-37,
13:25:51:08,57462,31.7656,0.99988    0.005163   0.0048561   -0.013585,0.58404     0.56445      -1.554,0.003233   0.0020885 -2.7776e-05,-0.0032768  -0.0040512  -0.0069923,-0.099304    0.095642      9.7734,0  0  0,0  0  0,0  0  0,213,-36,
13:25:51:42,57463,31.7656,0.99988   0.0051953   0.0048374   -0.013665,0.58773      0.5624     -1.5631,0.00074196    0.005085 -0.00062084,-0.011841   -0.013649  -0.0043907,-0.10754    0.086182      9.7734,0  0  0,0  0  0,0  0  0,213,-36,
13:25:51:76,57464,31.75,0.99988   0.0052133   0.0048357   -0.013672,0.58979     0.56224     -1.5639,0.0033855   0.0023785 -0.00075769,-0.0038261  -0.0056992  -0.0057335,-0.099487    0.094971      9.7734,0  0  0,0  0  0,0  0  0,213,-36,
13:25:52:10,57465,31.75,0.99988   0.0051289    0.004905   -0.013655,0.58002     0.57004     -1.5619,-5.2392e-05   0.0047531 -0.00077152,-0.0012417  -0.0021248  -0.0051613,-0.098572    0.096619      9.7734,0  0  0,0  0  0,0  0  0,213,-37,
13:25:52:44,57466,31.75,0.99988   0.0050785   0.0049612   -0.013717,0.57413     0.57643     -1.5691,0.0040588   0.0017462  -0.0013676,-0.011772    -0.01532    0.011169,-0.10968    0.082703      9.7891,0  0  0,0  0  0,0  0  0,213,-36,
13:25:52:78,57467,31.7656,0.99988   0.0050377   0.0050178    -0.01371,0.56937     0.58285     -1.5682,-0.00011301   0.0043755 -0.00075912,-0.0026321   0.0042229  -0.0085068,-0.10223     0.10107      9.7734,0  0  0,0  0  0,0  0  0,213,-36,
13:25:53:12,57468,31.7656,0.99988   0.0050541   0.0050188   -0.013671,0.57126     0.58297     -1.5638,0.0029545   0.0021992  -0.0013704,-0.0075493  -0.0038109  -0.0034237,-0.10681    0.093567      9.7734,0  0  0,0  0  0,0  0  0,213,-36,
13:25:53:46,57469,31.7656,0.99988   0.0050571   0.0050065   -0.013745,0.57159     0.58161     -1.5723,0.001935   0.0038223 -0.00058222,-0.0093613  -0.0014639  -0.0015392,-0.10858    0.095825      9.7813,0  0  0,0  0  0,0  0  0,213,-36,
13:25:53:80,57470,31.75,0.99988   0.0051185   0.0049388   -0.013739,0.57874     0.57395     -1.5715,0.0041962   0.0017948  -0.0015516,-0.00066233  -0.0040283   -0.010811,-0.098267    0.094849      9.7656,0  0  0,0  0  0,0  0  0,213,-36,
13:25:54:15,57471,31.75,0.99988   0.0051282   0.0049087   -0.013641,0.57995     0.57045     -1.5604,-0.0008235   0.0053291 -0.00045776,-0.010223  0.00047708  -0.0033607,-0.10773    0.098877      9.7734,0  0  0,0  0  0,0  0  0,213,-37,
13:25:54:49,57472,31.75,0.99988   0.0052095    0.004836   -0.013566,0.58942     0.56221     -1.5518,0.0055275   0.0014658 -0.00098133,-0.010696  -0.0094986 -0.00051117,-0.1062    0.091187      9.7813,0  0  0,0  0  0,0  0  0,213,-36,
13:25:54:83,57473,31.7656,0.99988   0.0051779   0.0048565   -0.013488,0.58581     0.56446     -1.5429,-0.00030661   0.0056114 -0.00016868,-0.012924  -0.0047836  -0.0061989,-0.10925    0.094604      9.7734,0  0  0,0  0  0,0  0  0,213,-36,
13:25:55:17,57474,31.7656,0.99988   0.0051444   0.0048653   -0.013507,0.58194     0.56543      -1.545,0.0041504  0.00096083 -0.00083876,-0.0062447  -0.0084457  -0.0015574,-0.10223    0.090942      9.7813,0  0  0,0  0  0,0  0  0,213,-37,
13:25:55:51,57475,31.7656,0.99988   0.0050885   0.0048971   -0.013505,0.57549     0.56899     -1.5448,-0.00092459   0.0056076 -0.00053549,-0.010544  -0.0053329  -0.0014286,-0.10773    0.092346      9.7813,0  0  0,0  0  0,0  0  0,213,-36,
13:25:55:85,57476,31.7656,0.99988   0.0050011   0.0049824   -0.013464,0.56537      0.5786     -1.5401,0.0010281   0.0037899 -0.00047159,-0.0029469  -0.0029278   -0.010086,-0.10156    0.093323      9.7656,0  0  0,0  0  0,0  0  0,213,-36,
13:25:56:19,57477,31.7656,0.99988   0.0049851   0.0050132   -0.013536,0.56345     0.58215     -1.5484,-0.00096989   0.0062447 -9.1791e-06,-0.0016251   0.0061073  -0.0077286,-0.10132     0.10187      9.7734,0  0  0,0  0  0,0  0  0,213,-36,
13:25:56:53,57478,31.7656,0.99988   0.0050451   0.0049865   -0.013686,0.57028     0.57927     -1.5655,0.0040512   0.0014191  -0.0010595,-0.0081482  -0.0093079   -0.001008,-0.10657    0.088013      9.7813,0  0  0,0  0  0,0  0  0,213,-36,
13:25:56:87,57479,31.7656,0.99988   0.0051292   0.0049622   -0.013672,0.57996     0.57661     -1.5639,0.0013943   0.0041351  -0.0010471,-0.013145   0.0014324  -0.0010004,-0.11163     0.10004      9.7813,0  0  0,0  0  0,0  0  0,213,-36,
13:25:57:21,57480,31.7656,0.99988   0.0051651   0.0049529   -0.013613,0.58412     0.57556     -1.5571,0.0032139   0.0022888 -0.00078583,-0.0021877     0.00142   -0.011139,-0.10022     0.10107      9.7656,0  0  0,0  0  0,0  0  0,213,-36,
13:25:57:55,57481,31.75,0.99988   0.0052033   0.0049171   -0.013695,0.58851     0.57156     -1.5665,0.00046492   0.0043716  -0.0010061,-0.0077095   -0.011131   0.0024738,-0.10504    0.088989      9.7813,0  0  0,0  0  0,0  0  0,213,-36,
13:25:57:89,57482,31.75,0.99988   0.0052002    0.004939   -0.013713,0.58811     0.57408     -1.5685,0.0037079   0.0022869   -0.001256,-0.0060387  -0.0053978  -0.0098724,-0.10364     0.09491      9.7656,0  0  0,0  0  0,0  0  0,213,-36,
13:25:58:23,57483,31.75,0.99988   0.0051374   0.0050139   -0.013695,0.58081     0.58255     -1.5665,0.00044489   0.0050659 -0.00089121,-0.012268   0.0025711   -0.011345,-0.11182     0.10114      9.7656,0  0  0,0  0  0,0  0  0,213,-36,
13:25:58:57,57484,31.7344,0.99988   0.0050364   0.0051307   -0.013639,0.56908     0.59575     -1.5601,0.0022144   0.0025654  -0.0011501,-0.0094452  -0.0093918   0.0019341,-0.11078    0.087524      9.7813,0  0  0,0  0  0,0  0  0,213,-36,
13:25:58:91,57485,31.7344,0.99988   0.0050176     0.00517   -0.013676,0.56685     0.60024     -1.5642,0.0012197   0.0039291   -0.001009,-0.003191   0.0020809  -0.0047417,-0.10571    0.098633      9.7734,0  0  0,0  0  0,0  0  0,213,-37,
13:25:59:25,57486,31.7344,0.99988   0.0049978   0.0051999   -0.013669,0.56454     0.60364     -1.5634,0.0019007   0.0036926 -0.00093508,-0.0040207  -0.0054932  0.00049973,-0.10693    0.090759      9.7813,0  0  0,0  0  0,0  0  0,213,-36,
13:25:59:58,57487,31.75,0.99988   0.0050502    0.005173   -0.013684,0.57057     0.60064     -1.5652,0.0032234   0.0020714 -0.00062132,-0.0019102   -0.011925  -0.0037193,-0.10394     0.08551      9.7734,0  0  0,0  0  0,0  0  0,213,-36,
13:25:59:92,57488,31.75,0.99988   0.0050668   0.0051573   -0.013686,0.57249     0.59886     -1.5654,0.0010166   0.0036983  -0.0010052,-0.0079727   0.0068359  -0.0090714,-0.11029     0.10419      9.7734,0  0  0,0  0  0,0  0  0,213,-36,
13:26:00:26,57489,31.75,0.99988    0.005164   0.0050917   -0.013624,0.58377     0.59147     -1.5582,0.0027428   0.0020199 -0.00085211,-0.0049629  -0.0068932 -0.00051975,-0.10559    0.092712      9.7813,0  0  0,0  0  0,0  0  0,213,-35,
13:26:00:60,57490,31.7656,0.99988   0.0052162   0.0050704   -0.013701,0.58974     0.58916     -1.5671,0.00036311   0.0051918 -0.00045395,-0.005909   -0.010956   0.0005455,-0.10632    0.089417      9.7813,0  0  0,0  0  0,0  0  0,213,-37,
13:26:00:94,57491,31.7656,0.99988   0.0052456   0.0050652   -0.013716,0.5931     0.58862     -1.5688,0.0032768   0.0022011  -0.0011597,-0.001997   0.0064507   -0.013351,-0.10236     0.10767      9.7656,0  0  0,0  0  0,0  0  0,213,-36,
13:26:01:28,57492,31.7656,0.99988   0.0051511   0.0051725   -0.013807,0.58206     0.60081     -1.5792,3.8803e-05   0.0051918  0.00019252,-0.0023651  -0.0037174   0.0035305,-0.10504    0.095459      9.7813,0  0  0,0  0  0,0  0  0,213,-36,
13:26:01:62,57493,31.7344,0.99988   0.0050985   0.0052321   -0.013784,0.57595     0.60755     -1.5765,0.0056877   0.0010977  -0.0013981,-0.0025749   -0.017273   -0.001339,-0.10553     0.08136      9.7813,0  0  0,0  0  0,0  0  0,213,-36,
13:26:01:96,57494,31.7344,0.99988   0.0050209    0.005321   -0.013764,0.56693      0.6176     -1.5743,-0.00083351   0.0062485  3.7849e-05,0.004509   0.0093765   -0.010529,-0.10132      0.1059      9.7656,0  0  0,0  0  0,0  0  0,213,-36,
13:26:02:30,57495,31.7344,0.99988   0.0050015   0.0053543   -0.013878,0.56459     0.62145     -1.5873,0.0042114   0.0013714  -0.0012836,0.0057831  -0.0082932  -0.0048523,-0.099792     0.08844      9.7734,0  0  0,0  0  0,0  0  0,213,-37,
13:26:02:65,57496,31.75,0.99988   0.0049958   0.0053845   -0.013881,0.56389      0.6249     -1.5877,0.0040817  0.00098228  -0.0012817,-0.003212   0.0040855  -0.0010014,-0.10974     0.10046      9.7813,0  0  0,0  0  0,0  0  0,213,-36,
13:26:02:99,57497,31.75,0.99988   0.0050609   0.0053342   -0.013712,0.57153     0.61915     -1.5682,0.0042572   0.0017509  -0.0011902,0.0086212   0.0038891  -0.0095749,-0.096924     0.10181      9.7734,0  0  0,0  0  0,0  0  0,213,-36,
13:26:03:33,57498,31.75,0.99988   0.0051366   0.0052756   -0.013739,0.58027     0.61256     -1.5713,-0.0010977    0.005619  0.00049448,-0.00076294  -0.0060005  -0.0069504,-0.10529    0.092651      9.7734,0  0  0,0  0  0,0  0  0,213,-36,
13:26:03:67,57499,31.7656,0.99988    0.005187   0.0052439   -0.013739,0.5861     0.60901     -1.5714,0.0042191  0.00097561  -0.0014563,0.0032578   -0.011322  -0.0044708,-0.1001    0.088989      9.7734,0  0  0,0  0  0,0  0  0,213,-36,
13:26:04:01,57500,31.7656,0.99988   0.0051722   0.0052568   -0.013589,0.58448     0.61038     -1.5541,-0.00010121   0.0048637 -0.00044107,-0.0055656  -0.0061874   0.0013494,-0.10974    0.093262      9.7813,0  0  0,0  0  0,0  0  0,213,-36,
13:26:04:35,57501,31.7656,0.99988   0.0051503   0.0052797   -0.013451,0.58201     0.61289     -1.5384,0.0041389    0.001565  -0.0013332,0.0028572  -0.0091782  -0.0026321,-0.10132    0.090454      9.7734,0  0  0,0  0  0,0  0  0,213,-36,
13:26:04:69,57502,31.75,0.99988   0.0050788    0.005354   -0.013385,0.57375     0.62125     -1.5308,-0.00054264   0.0058937 -0.00074625,0.0056839   0.0034027  0.00099659,-0.10071     0.10126      9.7813,0  0  0,0  0  0,0  0  0,213,-36,
13:26:05:03,57503,31.75,0.99988   0.0050206   0.0054093    -0.01338,0.567      0.6275     -1.5302,0.0021992   0.0023308 -0.00020313,-0.0026379   0.0015717  -0.0040359,-0.10962    0.098267      9.7734,0  0  0,0  0  0,0  0  0,213,-36,
13:26:05:37,57504,31.75,0.99988    0.004957   0.0054585   -0.013475,0.55958     0.63309     -1.5411,-0.00013125   0.0052338 -0.00013077,0.0090942  -0.0093155  -0.0034714,-0.098877    0.086243      9.7734,0  0  0,0  0  0,0  0  0,213,-36,
13:26:05:71,57505,31.7656,0.99988   0.0049459   0.0054739    -0.01347,0.55828     0.63483     -1.5405,0.0035591    0.001668  -0.0012541,-0.0082169   0.0030632   -0.010185,-0.11633    0.098206      9.7656,0  0  0,0  0  0,0  0  0,213,-36,
13:26:06:05,57506,31.7656,0.99988     0.00504   0.0053932   -0.013433,0.56921     0.62572     -1.5363,0.00022376   0.0050011 -0.00015736,-0.0074272  -0.0048866  -0.0043449,-0.1142    0.091858      9.7734,0  0  0,0  0  0,0  0  0,213,-37,
13:26:06:39,57507,31.7656,0.99988   0.0050403   0.0053627   -0.013584,0.5692      0.6223     -1.5537,0.0026112   0.0025864  -0.0012131,-0.00024152   0.0002023  -0.0063057,-0.10632    0.097351      9.7734,0  0  0,0  0  0,0  0  0,213,-37,
13:26:06:73,57508,31.75,0.99988   0.0051425   0.0053105   -0.013734,0.5809     0.61656     -1.5707,0.00060177   0.0046654 -0.00047898,-0.004612  -0.0092392   0.0033512,-0.10974    0.089722      9.7813,0  0  0,0  0  0,0  0  0,213,-36,
13:26:07:07,57509,31.75,0.99988   0.0051175   0.0053475   -0.013963,0.57784      0.6209      -1.597,0.0029221   0.0023689 -0.00053835,0.0018988  -0.0053368  -0.0078201,-0.10376    0.093384      9.7734,0  0  0,0  0  0,0  0  0,213,-36,
13:26:07:41,57510,31.75,0.99988   0.0051157    0.005357   -0.013957,0.57762     0.62198     -1.5963,0.001236   0.0043411 -0.00048256,0.0019274  0.00076485  -0.0065384,-0.10425    0.099304      9.7734,0  0  0,0  0  0,0  0  0,213,-36,
13:26:07:75,57511,31.75,0.99988   0.0050262   0.0054487   -0.013945,0.56722     0.63235     -1.5949,0.0018482   0.0033932 -0.00058985,0.0049133  -0.0082779    0.007431,-0.10284    0.088745      9.7891,0  0  0,0  0  0,0  0  0,213,-37,
13:26:08:08,57512,31.75,0.99987   0.0049759   0.0054795   -0.014001,0.56137     0.63582     -1.6013,0.001358   0.0036964 -0.00091124,0.0023117  -0.0087051  -0.0078278,-0.1059    0.087097      9.7734,0  0  0,0  0  0,0  0  0,213,-36,
13:26:08:42,57513,31.75,0.99987   0.0048895   0.0055732   -0.014066,0.55128     0.64645     -1.6088,-9.5487e-05    0.005127 -0.00058699,0.0089874   0.0096664   -0.014061,-0.10162      0.1037      9.7656,0  0  0,0  0  0,0  0  0,213,-36,
13:26:08:76,57514,31.75,0.99987    0.004979   0.0055146   -0.014077,0.56163      0.6399     -1.6101,0.0032597   0.0027561  -0.0012598,0.00073862   -0.012039   0.0050545,-0.10815    0.084045      9.7813,0  0  0,0  0  0,0  0  0,213,-36,
13:26:09:10,57515,31.75,0.99987   0.0050071   0.0055127   -0.014149,0.56481     0.63976     -1.6183,0.00029469   0.0045471 -0.00055265,-0.0020866  1.9073e-06  -0.0042267,-0.11133    0.096191      9.7734,0  0  0,0  0  0,0  0  0,213,-36,
13:26:09:44,57516,31.75,0.99987   0.0050889    0.005431   -0.014084,0.57435     0.63049     -1.6108,0.0031414    0.003233  -0.0010738,0.001832  -0.0013943   -0.014969,-0.10553     0.09668      9.7656,0  0  0,0  0  0,0  0  0,213,-36,
13:26:09:78,57517,31.75,0.99987   0.0050868   0.0054258   -0.014117,0.5741     0.62992     -1.6147,-0.00051641   0.0050087 -0.00043774,-0.00072241   -0.015343   0.0061378,-0.10803    0.082458      9.7891,0  0  0,0  0  0,0  0  0,213,-37,
13:26:10:12,57518,31.75,0.99987   0.0051343   0.0053981   -0.014192,0.57954     0.62686     -1.6232,0.004158   0.0014076   -0.001153,0.0036278  -0.0020561  -0.0091934,-0.10303    0.097107      9.7734,0  0  0,0  0  0,0  0  0,213,-36,
13:26:10:46,57519,31.75,0.99987   0.0050854   0.0054579   -0.014173,0.57385     0.63363     -1.6211,-0.00067091   0.0057335 -0.00031114,0.005661    0.002121  -0.0091858,-0.10266    0.099915      9.7734,0  0  0,0  0  0,0  0  0,213,-36,
13:26:10:80,57520,31.75,0.99987   0.0049906   0.0055559   -0.014377,0.5627     0.64481     -1.6445,0.0034714   0.0021114  -0.0011663,-0.0013189  -0.0058136   0.0025749,-0.11108    0.090393      9.7813,0  0  0,0  0  0,0  0  0,213,-36,
13:26:11:15,57521,31.75,0.99987   0.0049139   0.0055924   -0.014568,0.55372     0.64897     -1.6664,-0.00095224   0.0056229 -0.00032592,0.0069313   0.0038853  -0.0049553,-0.10413    0.098267      9.7734,0  0  0,0  0  0,0  0  0,213,-36,
13:26:11:49,57522,31.7344,0.99987   0.0049136   0.0056056   -0.014555,0.55368     0.65048     -1.6648,0.004467   0.0015078    -0.00138,-0.0024071  -0.0021286  -0.0060425,-0.1131    0.092529      9.7734,0  0  0,0  0  0,0  0  0,213,-36,
13:26:11:83,57523,31.7344,0.99986   0.0049117   0.0056111   -0.014683,0.55336     0.65118     -1.6795,-0.0016384   0.0054741 -0.00066042,-0.0077515  -0.0089188   0.0074348,-0.1189    0.085083      9.7891,0  0  0,0  0  0,0  0  0,213,-36,
13:26:12:17,57524,31.7344,0.99986    0.004978   0.0055518   -0.014749,0.56102     0.64453      -1.687,0.0037994   0.0014172  -0.0013237,0.0012312   0.0034485  -0.0075417,-0.10858    0.099365      9.7734,0  0  0,0  0  0,0  0  0,213,-36,
13:26:12:51,57525,31.75,0.99986   0.0050007   0.0055414   -0.014795,0.56361     0.64341     -1.6923,-0.0015202   0.0057487 -0.00046968,0.002615  0.00014281  -0.0011921,-0.10742    0.096069      9.7813,0  0  0,0  0  0,0  0  0,213,-36,
